,targetAnim,left_anim,right_anim,right_landolt,left_landolt,condition,corrAns,audioPos,repetition,trial_in_rep,trial,trial_idx,key_pressed,reaction_time,date,frameRate,expName,participant,corrCheck,sound_type,sound_loc
0,frog,duckFront.png,frogFront.png,landoltCTop.png,landoltCL.png,Hcong,h,ribbitR.wav,0.0,13.0,14.0,60.0,h,0.800653280909,2020_Feb_26_0910,59.9527072484,duckFrog,2,True,Animal,Duck1
1,frog,duckFront.png,frogFront.png,landoltCBottom.png,landoltCL.png,Hcong,b,ribbitR.wav,0.0,18.0,19.0,36.0,b,0.800832528126,2020_Feb_26_0910,59.9527072484,duckFrog,2,True,Animal,Duck1
2,frog,frogFront.png,duckFront.png,landoltCR.png,landoltCTop.png,Hcong,h,ribbitL.wav,0.0,23.0,24.0,40.0,h,0.483786008903,2020_Feb_26_0910,59.9527072484,duckFrog,2,True,Animal,Duck1
3,frog,frogFront.png,duckFront.png,landoltCL.png,landoltCBottom.png,Hcong,b,ribbitL.wav,0.0,26.0,27.0,64.0,b,0.850971160631,2020_Feb_26_0910,59.9527072484,duckFrog,2,True,Animal,Duck1
4,frog,duckFront.png,frogFront.png,landoltCBottom.png,landoltCL.png,Hcong,b,ribbitR.wav,0.0,27.0,28.0,68.0,b,0.6672717329060001,2020_Feb_26_0910,59.9527072484,duckFrog,2,True,Animal,Duck1
5,frog,duckFront.png,frogFront.png,landoltCTop.png,landoltCL.png,Hcong,h,ribbitR.wav,0.0,28.0,29.0,44.0,h,0.900986262845,2020_Feb_26_0910,59.9527072484,duckFrog,2,True,Animal,Duck1
6,frog,frogFront.png,duckFront.png,landoltCL.png,landoltCBottom.png,Hcong,b,ribbitL.wav,0.0,33.0,34.0,16.0,b,0.667440349906,2020_Feb_26_0910,59.9527072484,duckFrog,2,True,Animal,Duck1
7,frog,frogFront.png,duckFront.png,landoltCR.png,landoltCTop.png,Hcong,h,ribbitL.wav,0.0,39.0,40.0,72.0,h,0.567407946117,2020_Feb_26_0910,59.9527072484,duckFrog,2,True,Animal,Duck1
8,frog,duckFront.png,frogFront.png,landoltCBottom.png,landoltCL.png,Hcong,b,ribbitR.wav,0.0,40.0,41.0,52.0,b,0.8507816497730001,2020_Feb_26_0910,59.9527072484,duckFrog,2,True,Animal,Duck1
9,frog,duckFront.png,frogFront.png,landoltCBottom.png,landoltCL.png,Hcong,b,ribbitR.wav,0.0,47.0,48.0,20.0,b,0.8343136335019999,2020_Feb_26_0910,59.9527072484,duckFrog,2,True,Animal,Duck1
10,frog,frogFront.png,duckFront.png,landoltCR.png,landoltCTop.png,Hcong,h,ribbitL.wav,0.0,50.0,51.0,56.0,h,0.80091097168,2020_Feb_26_0910,59.9527072484,duckFrog,2,True,Animal,Duck1
11,frog,duckFront.png,frogFront.png,landoltCTop.png,landoltCL.png,Hcong,h,ribbitR.wav,0.0,56.0,57.0,28.0,h,0.8676459160200002,2020_Feb_26_0910,59.9527072484,duckFrog,2,True,Animal,Duck1
12,frog,frogFront.png,duckFront.png,landoltCR.png,landoltCTop.png,Hcong,h,ribbitL.wav,0.0,69.0,70.0,24.0,h,0.784185264623,2020_Feb_26_0910,59.9527072484,duckFrog,2,True,Animal,Duck1
13,frog,duckFront.png,frogFront.png,landoltCTop.png,landoltCL.png,Hcong,h,ribbitR.wav,1.0,6.0,87.0,60.0,h,0.667645989335,2020_Feb_26_0910,59.9527072484,duckFrog,2,True,Animal,Duck1
14,frog,duckFront.png,frogFront.png,landoltCTop.png,landoltCL.png,Hcong,h,ribbitR.wav,1.0,18.0,99.0,76.0,h,0.650734437018,2020_Feb_26_0910,59.9527072484,duckFrog,2,True,Animal,Duck1
15,frog,duckFront.png,frogFront.png,landoltCBottom.png,landoltCL.png,Hcong,b,ribbitR.wav,1.0,25.0,106.0,36.0,b,0.71742686053,2020_Feb_26_0910,59.9527072484,duckFrog,2,True,Animal,Duck1
16,frog,duckFront.png,frogFront.png,landoltCTop.png,landoltCL.png,Hcong,h,ribbitR.wav,1.0,27.0,108.0,44.0,h,0.533977792409,2020_Feb_26_0910,59.9527072484,duckFrog,2,True,Animal,Duck1
17,frog,frogFront.png,duckFront.png,landoltCL.png,landoltCBottom.png,Hcong,b,ribbitL.wav,1.0,34.0,115.0,32.0,b,0.684107774112,2020_Feb_26_0910,59.9527072484,duckFrog,2,True,Animal,Duck1
18,frog,duckFront.png,frogFront.png,landoltCBottom.png,landoltCL.png,Hcong,b,ribbitR.wav,1.0,36.0,117.0,52.0,b,0.6335094770040001,2020_Feb_26_0910,59.9527072484,duckFrog,2,True,Animal,Duck1
19,frog,frogFront.png,duckFront.png,landoltCL.png,landoltCBottom.png,Hcong,b,ribbitL.wav,1.0,43.0,124.0,48.0,b,0.9676244356820001,2020_Feb_26_0910,59.9527072484,duckFrog,2,True,Animal,Duck1
20,frog,duckFront.png,frogFront.png,landoltCBottom.png,landoltCL.png,Hcong,b,ribbitR.wav,1.0,44.0,125.0,68.0,b,0.800394123915,2020_Feb_26_0910,59.9527072484,duckFrog,2,True,Animal,Duck1
21,frog,frogFront.png,duckFront.png,landoltCR.png,landoltCTop.png,Hcong,h,ribbitL.wav,1.0,50.0,131.0,40.0,h,0.650705478882,2020_Feb_26_0910,59.9527072484,duckFrog,2,True,Animal,Duck1
22,frog,frogFront.png,duckFront.png,landoltCR.png,landoltCTop.png,Hcong,h,ribbitL.wav,1.0,53.0,134.0,56.0,h,0.466973060858,2020_Feb_26_0910,59.9527072484,duckFrog,2,True,Animal,Duck1
23,frog,frogFront.png,duckFront.png,landoltCL.png,landoltCBottom.png,Hcong,b,ribbitL.wav,1.0,72.0,153.0,16.0,h,0.834175807409,2020_Feb_26_0910,59.9527072484,duckFrog,2,False,Animal,Duck1
24,frog,frogFront.png,duckFront.png,landoltCR.png,landoltCTop.png,Hcong,h,ribbitL.wav,1.0,75.0,156.0,24.0,h,0.7171398450740001,2020_Feb_26_0910,59.9527072484,duckFrog,2,True,Animal,Duck1
25,frog,frogFront.png,duckFront.png,landoltCL.png,landoltCBottom.png,Hcong,b,ribbitL.wav,1.0,77.0,158.0,64.0,b,0.700237456724,2020_Feb_26_0910,59.9527072484,duckFrog,2,True,Animal,Duck1
26,frog,frogFront.png,duckFront.png,landoltCL.png,landoltCBottom.png,Hcong,b,ribbitL.wav,2.0,2.0,163.0,16.0,b,0.600694042238,2020_Feb_26_0910,59.9527072484,duckFrog,2,True,Animal,Duck1
27,frog,duckFront.png,frogFront.png,landoltCBottom.png,landoltCL.png,Hcong,b,ribbitR.wav,2.0,4.0,165.0,68.0,b,0.600355342016,2020_Feb_26_0910,59.9527072484,duckFrog,2,True,Animal,Duck1
28,frog,duckFront.png,frogFront.png,landoltCTop.png,landoltCL.png,Hcong,h,ribbitR.wav,2.0,7.0,168.0,44.0,h,0.566797625885,2020_Feb_26_0910,59.9527072484,duckFrog,2,True,Animal,Duck1
29,frog,duckFront.png,frogFront.png,landoltCBottom.png,landoltCL.png,Hcong,b,ribbitR.wav,2.0,40.0,201.0,20.0,b,0.683860713558,2020_Feb_26_0910,59.9527072484,duckFrog,2,True,Animal,Duck1
30,frog,frogFront.png,duckFront.png,landoltCL.png,landoltCBottom.png,Hcong,b,ribbitL.wav,2.0,41.0,202.0,32.0,b,0.683871343761,2020_Feb_26_0910,59.9527072484,duckFrog,2,True,Animal,Duck1
31,frog,duckFront.png,frogFront.png,landoltCBottom.png,landoltCL.png,Hcong,b,ribbitR.wav,2.0,45.0,206.0,52.0,b,0.767563293688,2020_Feb_26_0910,59.9527072484,duckFrog,2,True,Animal,Duck1
32,frog,duckFront.png,frogFront.png,landoltCTop.png,landoltCL.png,Hcong,h,ribbitR.wav,2.0,46.0,207.0,76.0,h,0.684143696883,2020_Feb_26_0910,59.9527072484,duckFrog,2,True,Animal,Duck1
33,frog,duckFront.png,frogFront.png,landoltCBottom.png,landoltCL.png,Hcong,b,ribbitR.wav,2.0,49.0,210.0,36.0,b,0.9674272271080001,2020_Feb_26_0910,59.9527072484,duckFrog,2,True,Animal,Duck1
34,frog,frogFront.png,duckFront.png,landoltCR.png,landoltCTop.png,Hcong,h,ribbitL.wav,2.0,51.0,212.0,56.0,h,0.650786854909,2020_Feb_26_0910,59.9527072484,duckFrog,2,True,Animal,Duck1
35,frog,duckFront.png,frogFront.png,landoltCTop.png,landoltCL.png,Hcong,h,ribbitR.wav,2.0,52.0,213.0,28.0,h,0.650540894028,2020_Feb_26_0910,59.9527072484,duckFrog,2,True,Animal,Duck1
36,frog,frogFront.png,duckFront.png,landoltCL.png,landoltCBottom.png,Hcong,b,ribbitL.wav,2.0,57.0,218.0,64.0,b,0.617166823795,2020_Feb_26_0910,59.9527072484,duckFrog,2,True,Animal,Duck1
37,frog,frogFront.png,duckFront.png,landoltCL.png,landoltCBottom.png,Hcong,b,ribbitL.wav,2.0,58.0,219.0,48.0,b,0.617438443805,2020_Feb_26_0910,59.9527072484,duckFrog,2,True,Animal,Duck1
38,frog,frogFront.png,duckFront.png,landoltCR.png,landoltCTop.png,Hcong,h,ribbitL.wav,2.0,74.0,235.0,72.0,h,0.717348050413,2020_Feb_26_0910,59.9527072484,duckFrog,2,True,Animal,Duck1
39,frog,frogFront.png,duckFront.png,landoltCR.png,landoltCTop.png,Hcong,h,ribbitL.wav,2.0,76.0,237.0,24.0,h,0.750662738137,2020_Feb_26_0910,59.9527072484,duckFrog,2,True,Animal,Duck1
40,frog,frogFront.png,duckFront.png,landoltCR.png,landoltCTop.png,Hcong,h,ribbitL.wav,2.0,77.0,238.0,40.0,h,0.584225292841,2020_Feb_26_0910,59.9527072484,duckFrog,2,True,Animal,Duck1
41,frog,duckFront.png,frogFront.png,landoltCBottom.png,landoltCL.png,Hcong,b,ribbitR.wav,3.0,0.0,241.0,36.0,b,0.6505427268280001,2020_Feb_26_0910,59.9527072484,duckFrog,2,True,Animal,Duck1
42,frog,duckFront.png,frogFront.png,landoltCTop.png,landoltCL.png,Hcong,h,ribbitR.wav,3.0,9.0,250.0,28.0,h,0.717197761347,2020_Feb_26_0910,59.9527072484,duckFrog,2,True,Animal,Duck1
43,frog,duckFront.png,frogFront.png,landoltCTop.png,landoltCL.png,Hcong,h,ribbitR.wav,3.0,16.0,257.0,76.0,h,0.634175880725,2020_Feb_26_0910,59.9527072484,duckFrog,2,True,Animal,Duck1
44,frog,duckFront.png,frogFront.png,landoltCTop.png,landoltCL.png,Hcong,h,ribbitR.wav,3.0,18.0,259.0,60.0,h,0.667374002776,2020_Feb_26_0910,59.9527072484,duckFrog,2,True,Animal,Duck1
45,frog,frogFront.png,duckFront.png,landoltCL.png,landoltCBottom.png,Hcong,b,ribbitL.wav,3.0,26.0,267.0,48.0,b,0.70023379114,2020_Feb_26_0910,59.9527072484,duckFrog,2,True,Animal,Duck1
46,frog,frogFront.png,duckFront.png,landoltCR.png,landoltCTop.png,Hcong,h,ribbitL.wav,3.0,35.0,276.0,72.0,h,0.784350949179,2020_Feb_26_0910,59.9527072484,duckFrog,2,True,Animal,Duck1
47,frog,duckFront.png,frogFront.png,landoltCBottom.png,landoltCL.png,Hcong,b,ribbitR.wav,3.0,40.0,281.0,68.0,b,0.750808628509,2020_Feb_26_0910,59.9527072484,duckFrog,2,True,Animal,Duck1
48,frog,frogFront.png,duckFront.png,landoltCL.png,landoltCBottom.png,Hcong,b,ribbitL.wav,3.0,45.0,286.0,32.0,b,0.800856354443,2020_Feb_26_0910,59.9527072484,duckFrog,2,True,Animal,Duck1
49,frog,duckFront.png,frogFront.png,landoltCTop.png,landoltCL.png,Hcong,h,ribbitR.wav,3.0,47.0,288.0,44.0,h,0.5840258849059999,2020_Feb_26_0910,59.9527072484,duckFrog,2,True,Animal,Duck1
50,frog,duckFront.png,frogFront.png,landoltCBottom.png,landoltCL.png,Hcong,b,ribbitR.wav,3.0,54.0,295.0,52.0,b,0.951016027408,2020_Feb_26_0910,59.9527072484,duckFrog,2,True,Animal,Duck1
51,frog,duckFront.png,frogFront.png,landoltCBottom.png,landoltCL.png,Hcong,b,ribbitR.wav,3.0,55.0,296.0,20.0,b,0.55076398165,2020_Feb_26_0910,59.9527072484,duckFrog,2,True,Animal,Duck1
52,frog,frogFront.png,duckFront.png,landoltCL.png,landoltCBottom.png,Hcong,b,ribbitL.wav,3.0,61.0,302.0,64.0,b,0.6210277866189999,2020_Feb_26_0910,59.9527072484,duckFrog,2,True,Animal,Duck1
53,frog,frogFront.png,duckFront.png,landoltCR.png,landoltCTop.png,Hcong,h,ribbitL.wav,3.0,70.0,311.0,40.0,h,0.667508163257,2020_Feb_26_0910,59.9527072484,duckFrog,2,True,Animal,Duck1
54,frog,frogFront.png,duckFront.png,landoltCL.png,landoltCBottom.png,Hcong,b,ribbitL.wav,3.0,72.0,313.0,16.0,b,0.650457685188,2020_Feb_26_0910,59.9527072484,duckFrog,2,True,Animal,Duck1
55,frog,frogFront.png,duckFront.png,landoltCR.png,landoltCTop.png,Hcong,h,ribbitL.wav,3.0,73.0,314.0,24.0,h,0.5672836827000001,2020_Feb_26_0910,59.9527072484,duckFrog,2,True,Animal,Duck1
56,frog,frogFront.png,duckFront.png,landoltCR.png,landoltCTop.png,Hcong,h,ribbitL.wav,3.0,78.0,319.0,56.0,h,0.417364472261,2020_Feb_26_0910,59.9527072484,duckFrog,2,True,Animal,Duck1
57,frog,frogFront.png,duckFront.png,landoltCL.png,landoltCBottom.png,Hcong,b,ribbitL.wav,4.0,5.0,326.0,48.0,b,0.650786854909,2020_Feb_26_0910,59.9527072484,duckFrog,2,True,Animal,Duck1
58,frog,duckFront.png,frogFront.png,landoltCBottom.png,landoltCL.png,Hcong,b,ribbitR.wav,4.0,6.0,327.0,68.0,b,0.617031563641,2020_Feb_26_0910,59.9527072484,duckFrog,2,True,Animal,Duck1
59,frog,frogFront.png,duckFront.png,landoltCL.png,landoltCBottom.png,Hcong,b,ribbitL.wav,4.0,7.0,328.0,32.0,b,0.650396836456,2020_Feb_26_0910,59.9527072484,duckFrog,2,True,Animal,Duck1
60,frog,frogFront.png,duckFront.png,landoltCL.png,landoltCBottom.png,Hcong,b,ribbitL.wav,4.0,10.0,331.0,64.0,b,0.6004183901100001,2020_Feb_26_0910,59.9527072484,duckFrog,2,True,Animal,Duck1
61,frog,frogFront.png,duckFront.png,landoltCR.png,landoltCTop.png,Hcong,h,ribbitL.wav,4.0,13.0,334.0,24.0,h,0.750704892387,2020_Feb_26_0910,59.9527072484,duckFrog,2,True,Animal,Duck1
62,frog,frogFront.png,duckFront.png,landoltCL.png,landoltCBottom.png,Hcong,b,ribbitL.wav,4.0,20.0,341.0,16.0,b,0.6342319642140001,2020_Feb_26_0910,59.9527072484,duckFrog,2,True,Animal,Duck1
63,frog,frogFront.png,duckFront.png,landoltCR.png,landoltCTop.png,Hcong,h,ribbitL.wav,4.0,25.0,346.0,40.0,b,0.500625349145,2020_Feb_26_0910,59.9527072484,duckFrog,2,False,Animal,Duck1
64,frog,duckFront.png,frogFront.png,landoltCTop.png,landoltCL.png,Hcong,h,ribbitR.wav,4.0,26.0,347.0,28.0,h,0.500575497164,2020_Feb_26_0910,59.9527072484,duckFrog,2,True,Animal,Duck1
65,frog,duckFront.png,frogFront.png,landoltCTop.png,landoltCL.png,Hcong,h,ribbitR.wav,4.0,27.0,348.0,44.0,h,0.567332801569,2020_Feb_26_0910,59.9527072484,duckFrog,2,True,Animal,Duck1
66,frog,duckFront.png,frogFront.png,landoltCTop.png,landoltCL.png,Hcong,h,ribbitR.wav,4.0,40.0,361.0,76.0,h,0.483705732535,2020_Feb_26_0910,59.9527072484,duckFrog,2,True,Animal,Duck1
67,frog,duckFront.png,frogFront.png,landoltCBottom.png,landoltCL.png,Hcong,b,ribbitR.wav,4.0,52.0,373.0,52.0,b,0.600199921129,2020_Feb_26_0910,59.9527072484,duckFrog,2,True,Animal,Duck1
68,frog,duckFront.png,frogFront.png,landoltCBottom.png,landoltCL.png,Hcong,b,ribbitR.wav,4.0,59.0,380.0,36.0,b,0.583985196892,2020_Feb_26_0910,59.9527072484,duckFrog,2,True,Animal,Duck1
69,frog,frogFront.png,duckFront.png,landoltCR.png,landoltCTop.png,Hcong,h,ribbitL.wav,4.0,64.0,385.0,56.0,h,0.567104435511,2020_Feb_26_0910,59.9527072484,duckFrog,2,True,Animal,Duck1
70,frog,duckFront.png,frogFront.png,landoltCTop.png,landoltCL.png,Hcong,h,ribbitR.wav,4.0,65.0,386.0,60.0,h,0.40012301709799997,2020_Feb_26_0910,59.9527072484,duckFrog,2,True,Animal,Duck1
71,frog,frogFront.png,duckFront.png,landoltCR.png,landoltCTop.png,Hcong,h,ribbitL.wav,4.0,68.0,389.0,72.0,h,0.434027497773,2020_Feb_26_0910,59.9527072484,duckFrog,2,True,Animal,Duck1
72,frog,duckFront.png,frogFront.png,landoltCBottom.png,landoltCL.png,Hcong,b,ribbitR.wav,4.0,75.0,396.0,20.0,b,0.500343465508,2020_Feb_26_0910,59.9527072484,duckFrog,2,True,Animal,Duck1
73,frog,duckFront.png,frogFront.png,landoltCBottom.png,landoltCL.png,Hcong,b,ribbitR.wav,5.0,0.0,401.0,68.0,b,0.567275618421,2020_Feb_26_0910,59.9527072484,duckFrog,2,True,Animal,Duck1
74,frog,duckFront.png,frogFront.png,landoltCTop.png,landoltCL.png,Hcong,h,ribbitR.wav,5.0,13.0,414.0,60.0,h,0.433663138421,2020_Feb_26_0910,59.9527072484,duckFrog,2,True,Animal,Duck1
75,frog,duckFront.png,frogFront.png,landoltCBottom.png,landoltCL.png,Hcong,b,ribbitR.wav,5.0,14.0,415.0,52.0,b,0.600662884768,2020_Feb_26_0910,59.9527072484,duckFrog,2,True,Animal,Duck1
76,frog,frogFront.png,duckFront.png,landoltCL.png,landoltCBottom.png,Hcong,b,ribbitL.wav,5.0,17.0,418.0,16.0,b,0.5507016666669999,2020_Feb_26_0910,59.9527072484,duckFrog,2,True,Animal,Duck1
77,frog,frogFront.png,duckFront.png,landoltCL.png,landoltCBottom.png,Hcong,b,ribbitL.wav,5.0,19.0,420.0,48.0,b,0.567079142958,2020_Feb_26_0910,59.9527072484,duckFrog,2,True,Animal,Duck1
78,frog,duckFront.png,frogFront.png,landoltCBottom.png,landoltCL.png,Hcong,b,ribbitR.wav,5.0,23.0,424.0,36.0,b,0.633999565995,2020_Feb_26_0910,59.9527072484,duckFrog,2,True,Animal,Duck1
79,frog,duckFront.png,frogFront.png,landoltCBottom.png,landoltCL.png,Hcong,b,ribbitR.wav,5.0,27.0,428.0,20.0,b,0.450568092681,2020_Feb_26_0910,59.9527072484,duckFrog,2,True,Animal,Duck1
80,frog,frogFront.png,duckFront.png,landoltCL.png,landoltCBottom.png,Hcong,b,ribbitL.wav,5.0,29.0,430.0,32.0,b,0.433867311614,2020_Feb_26_0910,59.9527072484,duckFrog,2,True,Animal,Duck1
81,frog,duckFront.png,frogFront.png,landoltCTop.png,landoltCL.png,Hcong,h,ribbitR.wav,5.0,32.0,433.0,28.0,h,0.43357333153800004,2020_Feb_26_0910,59.9527072484,duckFrog,2,True,Animal,Duck1
82,frog,frogFront.png,duckFront.png,landoltCR.png,landoltCTop.png,Hcong,h,ribbitL.wav,5.0,39.0,440.0,24.0,h,0.583984097218,2020_Feb_26_0910,59.9527072484,duckFrog,2,True,Animal,Duck1
83,frog,frogFront.png,duckFront.png,landoltCR.png,landoltCTop.png,Hcong,h,ribbitL.wav,5.0,41.0,442.0,72.0,h,0.333954405956,2020_Feb_26_0910,59.9527072484,duckFrog,2,True,Animal,Duck1
84,frog,frogFront.png,duckFront.png,landoltCL.png,landoltCBottom.png,Hcong,b,ribbitL.wav,5.0,55.0,456.0,64.0,b,0.516843738951,2020_Feb_26_0910,59.9527072484,duckFrog,2,True,Animal,Duck1
85,frog,frogFront.png,duckFront.png,landoltCR.png,landoltCTop.png,Hcong,h,ribbitL.wav,5.0,56.0,457.0,56.0,h,0.517264914903,2020_Feb_26_0910,59.9527072484,duckFrog,2,True,Animal,Duck1
86,frog,frogFront.png,duckFront.png,landoltCR.png,landoltCTop.png,Hcong,h,ribbitL.wav,5.0,63.0,464.0,40.0,h,0.634048318301,2020_Feb_26_0910,59.9527072484,duckFrog,2,True,Animal,Duck1
87,frog,duckFront.png,frogFront.png,landoltCTop.png,landoltCL.png,Hcong,h,ribbitR.wav,5.0,64.0,465.0,44.0,h,0.8672932865449999,2020_Feb_26_0910,59.9527072484,duckFrog,2,True,Animal,Duck1
88,frog,duckFront.png,frogFront.png,landoltCTop.png,landoltCL.png,Hcong,h,ribbitR.wav,5.0,71.0,472.0,76.0,h,0.5075544083079999,2020_Feb_26_0910,59.9527072484,duckFrog,2,True,Animal,Duck1
89,frog,frogFront.png,duckFront.png,landoltCL.png,landoltCBottom.png,Hcong,b,ribbitL.wav,6.0,0.0,481.0,64.0,b,0.3839658426,2020_Feb_26_0910,59.9527072484,duckFrog,2,True,Animal,Duck1
90,frog,duckFront.png,frogFront.png,landoltCBottom.png,landoltCL.png,Hcong,b,ribbitR.wav,6.0,1.0,482.0,20.0,b,0.984259969307,2020_Feb_26_0910,59.9527072484,duckFrog,2,True,Animal,Duck1
91,frog,frogFront.png,duckFront.png,landoltCR.png,landoltCTop.png,Hcong,h,ribbitL.wav,6.0,2.0,483.0,24.0,h,0.383551631254,2020_Feb_26_0910,59.9527072484,duckFrog,2,True,Animal,Duck1
92,frog,duckFront.png,frogFront.png,landoltCTop.png,landoltCL.png,Hcong,h,ribbitR.wav,6.0,7.0,488.0,28.0,h,0.333799351618,2020_Feb_26_0910,59.9527072484,duckFrog,2,True,Animal,Duck1
93,frog,frogFront.png,duckFront.png,landoltCR.png,landoltCTop.png,Hcong,h,ribbitL.wav,6.0,12.0,493.0,40.0,h,0.7676285411429999,2020_Feb_26_0910,59.9527072484,duckFrog,2,True,Animal,Duck1
94,frog,duckFront.png,frogFront.png,landoltCTop.png,landoltCL.png,Hcong,h,ribbitR.wav,6.0,13.0,494.0,76.0,h,0.450477186125,2020_Feb_26_0910,59.9527072484,duckFrog,2,True,Animal,Duck1
95,frog,frogFront.png,duckFront.png,landoltCR.png,landoltCTop.png,Hcong,h,ribbitL.wav,6.0,14.0,495.0,56.0,h,0.35024684063699996,2020_Feb_26_0910,59.9527072484,duckFrog,2,True,Animal,Duck1
96,frog,duckFront.png,frogFront.png,landoltCTop.png,landoltCL.png,Hcong,h,ribbitR.wav,6.0,25.0,506.0,60.0,h,0.500050218543,2020_Feb_26_0910,59.9527072484,duckFrog,2,True,Animal,Duck1
97,frog,duckFront.png,frogFront.png,landoltCBottom.png,landoltCL.png,Hcong,b,ribbitR.wav,6.0,31.0,512.0,68.0,b,0.567478691941,2020_Feb_26_0910,59.9527072484,duckFrog,2,True,Animal,Duck1
98,frog,duckFront.png,frogFront.png,landoltCTop.png,landoltCL.png,Hcong,h,ribbitR.wav,6.0,32.0,513.0,44.0,h,0.333845171466,2020_Feb_26_0910,59.9527072484,duckFrog,2,True,Animal,Duck1
99,frog,frogFront.png,duckFront.png,landoltCL.png,landoltCBottom.png,Hcong,b,ribbitL.wav,6.0,39.0,520.0,48.0,b,0.6006621516430001,2020_Feb_26_0910,59.9527072484,duckFrog,2,True,Animal,Duck1
100,frog,duckFront.png,frogFront.png,landoltCBottom.png,landoltCL.png,Hcong,b,ribbitR.wav,6.0,64.0,545.0,36.0,h,0.416861553706,2020_Feb_26_0910,59.9527072484,duckFrog,2,False,Animal,Duck1
101,frog,frogFront.png,duckFront.png,landoltCL.png,landoltCBottom.png,Hcong,b,ribbitL.wav,6.0,65.0,546.0,16.0,b,0.36669213027900005,2020_Feb_26_0910,59.9527072484,duckFrog,2,True,Animal,Duck1
102,frog,duckFront.png,frogFront.png,landoltCBottom.png,landoltCL.png,Hcong,b,ribbitR.wav,6.0,66.0,547.0,52.0,b,0.35022008184799996,2020_Feb_26_0910,59.9527072484,duckFrog,2,True,Animal,Duck1
103,frog,frogFront.png,duckFront.png,landoltCL.png,landoltCBottom.png,Hcong,b,ribbitL.wav,6.0,67.0,548.0,32.0,b,0.40025937693999997,2020_Feb_26_0910,59.9527072484,duckFrog,2,True,Animal,Duck1
104,frog,frogFront.png,duckFront.png,landoltCR.png,landoltCTop.png,Hcong,h,ribbitL.wav,6.0,78.0,559.0,72.0,h,0.550559075331,2020_Feb_26_0910,59.9527072484,duckFrog,2,True,Animal,Duck1
105,frog,duckFront.png,frogFront.png,landoltCTop.png,landoltCR.png,HcongWN,h,wnR.wav,0.0,3.0,4.0,29.0,h,0.683809028778,2020_Feb_26_0910,59.9527072484,duckFrog,2,True,White Noise,Duck1
106,frog,duckFront.png,frogFront.png,landoltCTop.png,landoltCR.png,HcongWN,h,wnR.wav,0.0,4.0,5.0,45.0,h,0.8341992671780001,2020_Feb_26_0910,59.9527072484,duckFrog,2,True,White Noise,Duck1
107,frog,duckFront.png,frogFront.png,landoltCTop.png,landoltCR.png,HcongWN,h,wnR.wav,0.0,8.0,9.0,77.0,h,0.6173621995840001,2020_Feb_26_0910,59.9527072484,duckFrog,2,True,White Noise,Duck1
108,frog,duckFront.png,frogFront.png,landoltCBottom.png,landoltCR.png,HcongWN,b,wnR.wav,0.0,9.0,10.0,37.0,b,1.13456553263,2020_Feb_26_0910,59.9527072484,duckFrog,2,True,White Noise,Duck1
109,frog,duckFront.png,frogFront.png,landoltCTop.png,landoltCR.png,HcongWN,h,wnR.wav,0.0,10.0,11.0,61.0,h,0.40083707345200004,2020_Feb_26_0910,59.9527072484,duckFrog,2,True,White Noise,Duck1
110,frog,frogFront.png,duckFront.png,landoltCR.png,landoltCBottom.png,HcongWN,b,wnL.wav,0.0,19.0,20.0,49.0,b,0.9507935262809999,2020_Feb_26_0910,59.9527072484,duckFrog,2,True,White Noise,Duck1
111,frog,duckFront.png,frogFront.png,landoltCBottom.png,landoltCR.png,HcongWN,b,wnR.wav,0.0,22.0,23.0,21.0,b,0.667435951196,2020_Feb_26_0910,59.9527072484,duckFrog,2,True,White Noise,Duck1
112,frog,duckFront.png,frogFront.png,landoltCBottom.png,landoltCR.png,HcongWN,b,wnR.wav,0.0,31.0,32.0,69.0,b,0.8841384917470001,2020_Feb_26_0910,59.9527072484,duckFrog,2,True,White Noise,Duck1
113,frog,frogFront.png,duckFront.png,landoltCL.png,landoltCTop.png,HcongWN,h,wnL.wav,0.0,38.0,39.0,73.0,h,0.88433496721,2020_Feb_26_0910,59.9527072484,duckFrog,2,True,White Noise,Duck1
114,frog,duckFront.png,frogFront.png,landoltCBottom.png,landoltCR.png,HcongWN,b,wnR.wav,0.0,44.0,45.0,53.0,b,0.7342170819320001,2020_Feb_26_0910,59.9527072484,duckFrog,2,True,White Noise,Duck1
115,frog,frogFront.png,duckFront.png,landoltCL.png,landoltCTop.png,HcongWN,h,wnL.wav,0.0,52.0,53.0,57.0,h,0.884325070117,2020_Feb_26_0910,59.9527072484,duckFrog,2,True,White Noise,Duck1
116,frog,frogFront.png,duckFront.png,landoltCL.png,landoltCTop.png,HcongWN,h,wnL.wav,0.0,62.0,63.0,25.0,h,0.667199520831,2020_Feb_26_0910,59.9527072484,duckFrog,2,True,White Noise,Duck1
117,frog,frogFront.png,duckFront.png,landoltCR.png,landoltCBottom.png,HcongWN,b,wnL.wav,1.0,2.0,83.0,33.0,b,0.8456311334450001,2020_Feb_26_0910,59.9527072484,duckFrog,2,True,White Noise,Duck1
118,frog,duckFront.png,frogFront.png,landoltCTop.png,landoltCR.png,HcongWN,h,wnR.wav,1.0,5.0,86.0,77.0,h,0.934288487566,2020_Feb_26_0910,59.9527072484,duckFrog,2,True,White Noise,Duck1
119,frog,duckFront.png,frogFront.png,landoltCBottom.png,landoltCR.png,HcongWN,b,wnR.wav,1.0,7.0,88.0,69.0,b,0.66733551411,2020_Feb_26_0910,59.9527072484,duckFrog,2,True,White Noise,Duck1
120,frog,duckFront.png,frogFront.png,landoltCBottom.png,landoltCR.png,HcongWN,b,wnR.wav,1.0,10.0,91.0,53.0,b,0.900881793626,2020_Feb_26_0910,59.9527072484,duckFrog,2,True,White Noise,Duck1
121,frog,duckFront.png,frogFront.png,landoltCTop.png,landoltCR.png,HcongWN,h,wnR.wav,1.0,14.0,95.0,29.0,h,0.617185884839,2020_Feb_26_0910,59.9527072484,duckFrog,2,True,White Noise,Duck1
122,frog,frogFront.png,duckFront.png,landoltCL.png,landoltCTop.png,HcongWN,h,wnL.wav,1.0,16.0,97.0,25.0,h,0.7508386863050001,2020_Feb_26_0910,59.9527072484,duckFrog,2,True,White Noise,Duck1
123,frog,frogFront.png,duckFront.png,landoltCL.png,landoltCTop.png,HcongWN,h,wnL.wav,1.0,20.0,101.0,57.0,h,0.6007262994100001,2020_Feb_26_0910,59.9527072484,duckFrog,2,True,White Noise,Duck1
124,frog,frogFront.png,duckFront.png,landoltCR.png,landoltCBottom.png,HcongWN,b,wnL.wav,1.0,21.0,102.0,65.0,h,0.116960084692,2020_Feb_26_0910,59.9527072484,duckFrog,2,False,White Noise,Duck1
125,frog,frogFront.png,duckFront.png,landoltCR.png,landoltCBottom.png,HcongWN,b,wnL.wav,1.0,48.0,129.0,17.0,b,0.8842865814659999,2020_Feb_26_0910,59.9527072484,duckFrog,2,True,White Noise,Duck1
126,frog,frogFront.png,duckFront.png,landoltCR.png,landoltCBottom.png,HcongWN,b,wnL.wav,1.0,54.0,135.0,49.0,b,0.617543279586,2020_Feb_26_0910,59.9527072484,duckFrog,2,True,White Noise,Duck1
127,frog,duckFront.png,frogFront.png,landoltCTop.png,landoltCR.png,HcongWN,h,wnR.wav,1.0,59.0,140.0,45.0,h,0.750593825098,2020_Feb_26_0910,59.9527072484,duckFrog,2,True,White Noise,Duck1
128,frog,frogFront.png,duckFront.png,landoltCL.png,landoltCTop.png,HcongWN,h,wnL.wav,1.0,61.0,142.0,73.0,h,0.567289914208,2020_Feb_26_0910,59.9527072484,duckFrog,2,True,White Noise,Duck1
129,frog,frogFront.png,duckFront.png,landoltCL.png,landoltCTop.png,HcongWN,h,wnL.wav,1.0,63.0,144.0,41.0,h,0.6674528128930001,2020_Feb_26_0910,59.9527072484,duckFrog,2,True,White Noise,Duck1
130,frog,duckFront.png,frogFront.png,landoltCTop.png,landoltCR.png,HcongWN,h,wnR.wav,1.0,64.0,145.0,61.0,h,0.500197575137,2020_Feb_26_0910,59.9527072484,duckFrog,2,True,White Noise,Duck1
131,frog,duckFront.png,frogFront.png,landoltCBottom.png,landoltCR.png,HcongWN,b,wnR.wav,1.0,65.0,146.0,37.0,b,0.450512742304,2020_Feb_26_0910,59.9527072484,duckFrog,2,True,White Noise,Duck1
132,frog,duckFront.png,frogFront.png,landoltCBottom.png,landoltCR.png,HcongWN,b,wnR.wav,1.0,74.0,155.0,21.0,b,1.0840863670999998,2020_Feb_26_0910,59.9527072484,duckFrog,2,True,White Noise,Duck1
133,frog,frogFront.png,duckFront.png,landoltCR.png,landoltCBottom.png,HcongWN,b,wnL.wav,2.0,3.0,164.0,17.0,b,0.567343431787,2020_Feb_26_0910,59.9527072484,duckFrog,2,True,White Noise,Duck1
134,frog,frogFront.png,duckFront.png,landoltCR.png,landoltCBottom.png,HcongWN,b,wnL.wav,2.0,6.0,167.0,49.0,b,0.584008656646,2020_Feb_26_0910,59.9527072484,duckFrog,2,True,White Noise,Duck1
135,frog,duckFront.png,frogFront.png,landoltCBottom.png,landoltCR.png,HcongWN,b,wnR.wav,2.0,8.0,169.0,69.0,b,0.38385587498499996,2020_Feb_26_0910,59.9527072484,duckFrog,2,True,White Noise,Duck1
136,frog,duckFront.png,frogFront.png,landoltCTop.png,landoltCR.png,HcongWN,h,wnR.wav,2.0,10.0,171.0,77.0,h,0.350221914647,2020_Feb_26_0910,59.9527072484,duckFrog,2,True,White Noise,Duck1
137,frog,frogFront.png,duckFront.png,landoltCL.png,landoltCTop.png,HcongWN,h,wnL.wav,2.0,13.0,174.0,41.0,h,0.600170229867,2020_Feb_26_0910,59.9527072484,duckFrog,2,True,White Noise,Duck1
138,frog,duckFront.png,frogFront.png,landoltCBottom.png,landoltCR.png,HcongWN,b,wnR.wav,2.0,18.0,179.0,53.0,b,0.700760535998,2020_Feb_26_0910,59.9527072484,duckFrog,2,True,White Noise,Duck1
139,frog,duckFront.png,frogFront.png,landoltCBottom.png,landoltCR.png,HcongWN,b,wnR.wav,2.0,20.0,181.0,37.0,b,0.667414324242,2020_Feb_26_0910,59.9527072484,duckFrog,2,True,White Noise,Duck1
140,frog,duckFront.png,frogFront.png,landoltCTop.png,landoltCR.png,HcongWN,h,wnR.wav,2.0,25.0,186.0,29.0,h,0.633825084049,2020_Feb_26_0910,59.9527072484,duckFrog,2,True,White Noise,Duck1
141,frog,frogFront.png,duckFront.png,landoltCL.png,landoltCTop.png,HcongWN,h,wnL.wav,2.0,28.0,189.0,57.0,h,0.667395629731,2020_Feb_26_0910,59.9527072484,duckFrog,2,True,White Noise,Duck1
142,frog,frogFront.png,duckFront.png,landoltCL.png,landoltCTop.png,HcongWN,h,wnL.wav,2.0,36.0,197.0,73.0,h,0.8672885212870001,2020_Feb_26_0910,59.9527072484,duckFrog,2,True,White Noise,Duck1
143,frog,frogFront.png,duckFront.png,landoltCL.png,landoltCTop.png,HcongWN,h,wnL.wav,2.0,39.0,200.0,25.0,h,0.900862366005,2020_Feb_26_0910,59.9527072484,duckFrog,2,True,White Noise,Duck1
144,frog,duckFront.png,frogFront.png,landoltCTop.png,landoltCR.png,HcongWN,h,wnR.wav,2.0,50.0,211.0,45.0,h,0.767358020821,2020_Feb_26_0910,59.9527072484,duckFrog,2,True,White Noise,Duck1
145,frog,frogFront.png,duckFront.png,landoltCR.png,landoltCBottom.png,HcongWN,b,wnL.wav,2.0,60.0,221.0,33.0,b,0.683797665464,2020_Feb_26_0910,59.9527072484,duckFrog,2,True,White Noise,Duck1
146,frog,frogFront.png,duckFront.png,landoltCR.png,landoltCBottom.png,HcongWN,b,wnL.wav,2.0,63.0,224.0,65.0,b,0.600703206219,2020_Feb_26_0910,59.9527072484,duckFrog,2,True,White Noise,Duck1
147,frog,duckFront.png,frogFront.png,landoltCBottom.png,landoltCR.png,HcongWN,b,wnR.wav,2.0,70.0,231.0,21.0,b,0.7173663783609999,2020_Feb_26_0910,59.9527072484,duckFrog,2,True,White Noise,Duck1
148,frog,frogFront.png,duckFront.png,landoltCL.png,landoltCTop.png,HcongWN,h,wnL.wav,3.0,2.0,243.0,25.0,h,0.8006510815610001,2020_Feb_26_0910,59.9527072484,duckFrog,2,True,White Noise,Duck1
149,frog,duckFront.png,frogFront.png,landoltCBottom.png,landoltCR.png,HcongWN,b,wnR.wav,3.0,4.0,245.0,53.0,b,0.516969102042,2020_Feb_26_0910,59.9527072484,duckFrog,2,True,White Noise,Duck1
150,frog,frogFront.png,duckFront.png,landoltCL.png,landoltCTop.png,HcongWN,h,wnL.wav,3.0,8.0,249.0,57.0,h,0.7506176514139999,2020_Feb_26_0910,59.9527072484,duckFrog,2,True,White Noise,Duck1
151,frog,frogFront.png,duckFront.png,landoltCR.png,landoltCBottom.png,HcongWN,b,wnL.wav,3.0,19.0,260.0,33.0,b,0.750287748582,2020_Feb_26_0910,59.9527072484,duckFrog,2,True,White Noise,Duck1
152,frog,duckFront.png,frogFront.png,landoltCTop.png,landoltCR.png,HcongWN,h,wnR.wav,3.0,28.0,269.0,61.0,h,0.517021519932,2020_Feb_26_0910,59.9527072484,duckFrog,2,True,White Noise,Duck1
153,frog,duckFront.png,frogFront.png,landoltCBottom.png,landoltCR.png,HcongWN,b,wnR.wav,3.0,30.0,271.0,69.0,b,0.550110774042,2020_Feb_26_0910,59.9527072484,duckFrog,2,True,White Noise,Duck1
154,frog,duckFront.png,frogFront.png,landoltCBottom.png,landoltCR.png,HcongWN,b,wnR.wav,3.0,37.0,278.0,21.0,b,0.567410512027,2020_Feb_26_0910,59.9527072484,duckFrog,2,True,White Noise,Duck1
155,frog,duckFront.png,frogFront.png,landoltCTop.png,landoltCR.png,HcongWN,h,wnR.wav,3.0,39.0,280.0,45.0,h,0.7339733203990001,2020_Feb_26_0910,59.9527072484,duckFrog,2,True,White Noise,Duck1
156,frog,duckFront.png,frogFront.png,landoltCTop.png,landoltCR.png,HcongWN,h,wnR.wav,3.0,51.0,292.0,77.0,h,0.5006304809650001,2020_Feb_26_0910,59.9527072484,duckFrog,2,True,White Noise,Duck1
157,frog,duckFront.png,frogFront.png,landoltCTop.png,landoltCR.png,HcongWN,h,wnR.wav,3.0,53.0,294.0,29.0,h,0.851104221438,2020_Feb_26_0910,59.9527072484,duckFrog,2,True,White Noise,Duck1
158,frog,frogFront.png,duckFront.png,landoltCR.png,landoltCBottom.png,HcongWN,b,wnL.wav,3.0,65.0,306.0,65.0,b,0.584093698257,2020_Feb_26_0910,59.9527072484,duckFrog,2,True,White Noise,Duck1
159,frog,frogFront.png,duckFront.png,landoltCR.png,landoltCBottom.png,HcongWN,b,wnL.wav,3.0,68.0,309.0,17.0,b,0.450343392193,2020_Feb_26_0910,59.9527072484,duckFrog,2,True,White Noise,Duck1
160,frog,duckFront.png,frogFront.png,landoltCBottom.png,landoltCR.png,HcongWN,b,wnR.wav,3.0,71.0,312.0,37.0,b,0.45030417041599996,2020_Feb_26_0910,59.9527072484,duckFrog,2,True,White Noise,Duck1
161,frog,frogFront.png,duckFront.png,landoltCL.png,landoltCTop.png,HcongWN,h,wnL.wav,3.0,75.0,316.0,73.0,h,0.48409391820299996,2020_Feb_26_0910,59.9527072484,duckFrog,2,True,White Noise,Duck1
162,frog,frogFront.png,duckFront.png,landoltCL.png,landoltCTop.png,HcongWN,h,wnL.wav,3.0,77.0,318.0,41.0,h,0.5839393770579999,2020_Feb_26_0910,59.9527072484,duckFrog,2,True,White Noise,Duck1
163,frog,frogFront.png,duckFront.png,landoltCL.png,landoltCTop.png,HcongWN,h,wnL.wav,4.0,0.0,321.0,57.0,h,0.567576929665,2020_Feb_26_0910,59.9527072484,duckFrog,2,True,White Noise,Duck1
164,frog,duckFront.png,frogFront.png,landoltCBottom.png,landoltCR.png,HcongWN,b,wnR.wav,4.0,8.0,329.0,37.0,b,0.467018514144,2020_Feb_26_0910,59.9527072484,duckFrog,2,True,White Noise,Duck1
165,frog,duckFront.png,frogFront.png,landoltCTop.png,landoltCR.png,HcongWN,h,wnR.wav,4.0,14.0,335.0,77.0,h,0.517028484537,2020_Feb_26_0910,59.9527072484,duckFrog,2,True,White Noise,Duck1
166,frog,frogFront.png,duckFront.png,landoltCR.png,landoltCBottom.png,HcongWN,b,wnL.wav,4.0,15.0,336.0,33.0,b,0.733659179576,2020_Feb_26_0910,59.9527072484,duckFrog,2,True,White Noise,Duck1
167,frog,duckFront.png,frogFront.png,landoltCBottom.png,landoltCR.png,HcongWN,b,wnR.wav,4.0,16.0,337.0,21.0,b,0.450279244425,2020_Feb_26_0910,59.9527072484,duckFrog,2,True,White Noise,Duck1
168,frog,frogFront.png,duckFront.png,landoltCL.png,landoltCTop.png,HcongWN,h,wnL.wav,4.0,17.0,338.0,41.0,h,0.48380836896799995,2020_Feb_26_0910,59.9527072484,duckFrog,2,True,White Noise,Duck1
169,frog,duckFront.png,frogFront.png,landoltCTop.png,landoltCR.png,HcongWN,h,wnR.wav,4.0,28.0,349.0,45.0,h,0.584122656408,2020_Feb_26_0910,59.9527072484,duckFrog,2,True,White Noise,Duck1
170,frog,duckFront.png,frogFront.png,landoltCBottom.png,landoltCR.png,HcongWN,b,wnR.wav,4.0,33.0,354.0,53.0,b,0.516780690858,2020_Feb_26_0910,59.9527072484,duckFrog,2,True,White Noise,Duck1
171,frog,frogFront.png,duckFront.png,landoltCL.png,landoltCTop.png,HcongWN,h,wnL.wav,4.0,39.0,360.0,73.0,h,0.483904773908,2020_Feb_26_0910,59.9527072484,duckFrog,2,True,White Noise,Duck1
172,frog,duckFront.png,frogFront.png,landoltCTop.png,landoltCR.png,HcongWN,h,wnR.wav,4.0,48.0,369.0,61.0,h,0.867569671813,2020_Feb_26_0910,59.9527072484,duckFrog,2,True,White Noise,Duck1
173,frog,duckFront.png,frogFront.png,landoltCTop.png,landoltCR.png,HcongWN,h,wnR.wav,4.0,56.0,377.0,29.0,h,0.584164444095,2020_Feb_26_0910,59.9527072484,duckFrog,2,True,White Noise,Duck1
174,frog,frogFront.png,duckFront.png,landoltCR.png,landoltCBottom.png,HcongWN,b,wnL.wav,4.0,61.0,382.0,17.0,b,0.575109344456,2020_Feb_26_0910,59.9527072484,duckFrog,2,True,White Noise,Duck1
175,frog,duckFront.png,frogFront.png,landoltCBottom.png,landoltCR.png,HcongWN,b,wnR.wav,4.0,70.0,391.0,69.0,b,0.383586087773,2020_Feb_26_0910,59.9527072484,duckFrog,2,True,White Noise,Duck1
176,frog,frogFront.png,duckFront.png,landoltCR.png,landoltCBottom.png,HcongWN,b,wnL.wav,4.0,72.0,393.0,65.0,b,0.500724319994,2020_Feb_26_0910,59.9527072484,duckFrog,2,True,White Noise,Duck1
177,frog,frogFront.png,duckFront.png,landoltCR.png,landoltCBottom.png,HcongWN,b,wnL.wav,4.0,77.0,398.0,49.0,b,0.533955065766,2020_Feb_26_0910,59.9527072484,duckFrog,2,True,White Noise,Duck1
178,frog,frogFront.png,duckFront.png,landoltCL.png,landoltCTop.png,HcongWN,h,wnL.wav,4.0,78.0,399.0,25.0,h,0.417194755573,2020_Feb_26_0910,59.9527072484,duckFrog,2,True,White Noise,Duck1
179,frog,frogFront.png,duckFront.png,landoltCL.png,landoltCTop.png,HcongWN,h,wnL.wav,5.0,2.0,403.0,41.0,h,1.11768147221,2020_Feb_26_0910,59.9527072484,duckFrog,2,True,White Noise,Duck1
180,frog,duckFront.png,frogFront.png,landoltCTop.png,landoltCR.png,HcongWN,h,wnR.wav,5.0,6.0,407.0,45.0,h,0.600701006857,2020_Feb_26_0910,59.9527072484,duckFrog,2,True,White Noise,Duck1
181,frog,duckFront.png,frogFront.png,landoltCTop.png,landoltCR.png,HcongWN,h,wnR.wav,5.0,8.0,409.0,77.0,h,0.683758443687,2020_Feb_26_0910,59.9527072484,duckFrog,2,True,White Noise,Duck1
182,frog,duckFront.png,frogFront.png,landoltCTop.png,landoltCR.png,HcongWN,h,wnR.wav,5.0,10.0,411.0,29.0,h,0.38364107157399996,2020_Feb_26_0910,59.9527072484,duckFrog,2,True,White Noise,Duck1
183,frog,frogFront.png,duckFront.png,landoltCR.png,landoltCBottom.png,HcongWN,b,wnL.wav,5.0,11.0,412.0,17.0,b,0.700479018924,2020_Feb_26_0910,59.9527072484,duckFrog,2,True,White Noise,Duck1
184,frog,frogFront.png,duckFront.png,landoltCR.png,landoltCBottom.png,HcongWN,b,wnL.wav,5.0,35.0,436.0,65.0,b,0.633869437646,2020_Feb_26_0910,59.9527072484,duckFrog,2,True,White Noise,Duck1
185,frog,frogFront.png,duckFront.png,landoltCL.png,landoltCTop.png,HcongWN,h,wnL.wav,5.0,38.0,439.0,73.0,h,0.567275251873,2020_Feb_26_0910,59.9527072484,duckFrog,2,True,White Noise,Duck1
186,frog,frogFront.png,duckFront.png,landoltCL.png,landoltCTop.png,HcongWN,h,wnL.wav,5.0,46.0,447.0,25.0,h,0.433712990402,2020_Feb_26_0910,59.9527072484,duckFrog,2,True,White Noise,Duck1
187,frog,duckFront.png,frogFront.png,landoltCTop.png,landoltCR.png,HcongWN,h,wnR.wav,5.0,50.0,451.0,61.0,h,0.617336907046,2020_Feb_26_0910,59.9527072484,duckFrog,2,True,White Noise,Duck1
188,frog,frogFront.png,duckFront.png,landoltCL.png,landoltCTop.png,HcongWN,h,wnL.wav,5.0,51.0,452.0,57.0,h,0.617095711408,2020_Feb_26_0910,59.9527072484,duckFrog,2,True,White Noise,Duck1
189,frog,duckFront.png,frogFront.png,landoltCBottom.png,landoltCR.png,HcongWN,b,wnR.wav,5.0,54.0,455.0,21.0,b,0.633755071336,2020_Feb_26_0910,59.9527072484,duckFrog,2,True,White Noise,Duck1
190,frog,duckFront.png,frogFront.png,landoltCBottom.png,landoltCR.png,HcongWN,b,wnR.wav,5.0,58.0,459.0,37.0,b,0.450739275591,2020_Feb_26_0910,59.9527072484,duckFrog,2,True,White Noise,Duck1
191,frog,duckFront.png,frogFront.png,landoltCBottom.png,landoltCR.png,HcongWN,b,wnR.wav,5.0,61.0,462.0,69.0,b,0.584099929765,2020_Feb_26_0910,59.9527072484,duckFrog,2,True,White Noise,Duck1
192,frog,frogFront.png,duckFront.png,landoltCR.png,landoltCBottom.png,HcongWN,b,wnL.wav,5.0,62.0,463.0,33.0,h,0.349990616101,2020_Feb_26_0910,59.9527072484,duckFrog,2,False,White Noise,Duck1
193,frog,duckFront.png,frogFront.png,landoltCBottom.png,landoltCR.png,HcongWN,b,wnR.wav,5.0,77.0,478.0,53.0,b,0.600663251316,2020_Feb_26_0910,59.9527072484,duckFrog,2,True,White Noise,Duck1
194,frog,frogFront.png,duckFront.png,landoltCR.png,landoltCBottom.png,HcongWN,b,wnL.wav,5.0,79.0,480.0,49.0,b,0.567108467643,2020_Feb_26_0910,59.9527072484,duckFrog,2,True,White Noise,Duck1
195,frog,duckFront.png,frogFront.png,landoltCBottom.png,landoltCR.png,HcongWN,b,wnR.wav,6.0,4.0,485.0,37.0,b,0.433915697373,2020_Feb_26_0910,59.9527072484,duckFrog,2,True,White Noise,Duck1
196,frog,duckFront.png,frogFront.png,landoltCBottom.png,landoltCR.png,HcongWN,b,wnR.wav,6.0,9.0,490.0,21.0,b,0.48416209813100003,2020_Feb_26_0910,59.9527072484,duckFrog,2,True,White Noise,Duck1
197,frog,duckFront.png,frogFront.png,landoltCBottom.png,landoltCR.png,HcongWN,b,wnR.wav,6.0,10.0,491.0,53.0,b,0.750821824622,2020_Feb_26_0910,59.9527072484,duckFrog,2,True,White Noise,Duck1
198,frog,frogFront.png,duckFront.png,landoltCR.png,landoltCBottom.png,HcongWN,b,wnL.wav,6.0,17.0,498.0,17.0,b,0.41720245330399996,2020_Feb_26_0910,59.9527072484,duckFrog,2,True,White Noise,Duck1
199,frog,duckFront.png,frogFront.png,landoltCTop.png,landoltCR.png,HcongWN,h,wnR.wav,6.0,22.0,503.0,77.0,h,0.35024903998400003,2020_Feb_26_0910,59.9527072484,duckFrog,2,True,White Noise,Duck1
200,frog,duckFront.png,frogFront.png,landoltCBottom.png,landoltCR.png,HcongWN,b,wnR.wav,6.0,23.0,504.0,69.0,b,0.567331335347,2020_Feb_26_0910,59.9527072484,duckFrog,2,True,White Noise,Duck1
201,frog,frogFront.png,duckFront.png,landoltCR.png,landoltCBottom.png,HcongWN,b,wnL.wav,6.0,24.0,505.0,33.0,b,0.500282983325,2020_Feb_26_0910,59.9527072484,duckFrog,2,True,White Noise,Duck1
202,frog,duckFront.png,frogFront.png,landoltCTop.png,landoltCR.png,HcongWN,h,wnR.wav,6.0,27.0,508.0,45.0,h,0.350530923635,2020_Feb_26_0910,59.9527072484,duckFrog,2,True,White Noise,Duck1
203,frog,frogFront.png,duckFront.png,landoltCL.png,landoltCTop.png,HcongWN,h,wnL.wav,6.0,28.0,509.0,57.0,h,0.41685935435800003,2020_Feb_26_0910,59.9527072484,duckFrog,2,True,White Noise,Duck1
204,frog,frogFront.png,duckFront.png,landoltCR.png,landoltCBottom.png,HcongWN,b,wnL.wav,6.0,34.0,515.0,49.0,b,0.367143364041,2020_Feb_26_0910,59.9527072484,duckFrog,2,True,White Noise,Duck1
205,frog,frogFront.png,duckFront.png,landoltCL.png,landoltCTop.png,HcongWN,h,wnL.wav,6.0,36.0,517.0,25.0,h,0.450518973812,2020_Feb_26_0910,59.9527072484,duckFrog,2,True,White Noise,Duck1
206,frog,frogFront.png,duckFront.png,landoltCL.png,landoltCTop.png,HcongWN,h,wnL.wav,6.0,57.0,538.0,41.0,h,0.500561201377,2020_Feb_26_0910,59.9527072484,duckFrog,2,True,White Noise,Duck1
207,frog,duckFront.png,frogFront.png,landoltCTop.png,landoltCR.png,HcongWN,h,wnR.wav,6.0,58.0,539.0,29.0,h,0.333667023937,2020_Feb_26_0910,59.9527072484,duckFrog,2,True,White Noise,Duck1
208,frog,frogFront.png,duckFront.png,landoltCL.png,landoltCTop.png,HcongWN,h,wnL.wav,6.0,76.0,557.0,73.0,b,0.41717276204099996,2020_Feb_26_0910,59.9527072484,duckFrog,2,False,White Noise,Duck1
209,frog,duckFront.png,frogFront.png,landoltCTop.png,landoltCR.png,HcongWN,h,wnR.wav,6.0,77.0,558.0,61.0,h,0.517051944305,2020_Feb_26_0910,59.9527072484,duckFrog,2,True,White Noise,Duck1
210,frog,frogFront.png,duckFront.png,landoltCR.png,landoltCBottom.png,HcongWN,b,wnL.wav,6.0,79.0,560.0,65.0,b,0.41733551410999997,2020_Feb_26_0910,59.9527072484,duckFrog,2,True,White Noise,Duck1
211,frog,duckFront.png,frogFront.png,landoltCTop.png,landoltCL.png,HinCong,h,quackL.wav,0.0,7.0,8.0,62.0,h,1.01760434828,2020_Feb_26_0910,59.9527072484,duckFrog,2,True,Animal,Frog1
212,frog,frogFront.png,duckFront.png,landoltCR.png,landoltCTop.png,HinCong,h,quackR.wav,0.0,37.0,38.0,58.0,b,1.0678085947700002,2020_Feb_26_0910,59.9527072484,duckFrog,2,False,Animal,Frog1
213,frog,frogFront.png,duckFront.png,landoltCL.png,landoltCBottom.png,HinCong,b,quackR.wav,0.0,41.0,42.0,34.0,b,0.800789640765,2020_Feb_26_0910,59.9527072484,duckFrog,2,True,Animal,Frog1
214,frog,frogFront.png,duckFront.png,landoltCR.png,landoltCTop.png,HinCong,h,quackR.wav,0.0,58.0,59.0,42.0,h,0.6839072665170001,2020_Feb_26_0910,59.9527072484,duckFrog,2,True,Animal,Frog1
215,frog,frogFront.png,duckFront.png,landoltCR.png,landoltCTop.png,HinCong,h,quackR.wav,0.0,60.0,61.0,26.0,h,0.8174977529999999,2020_Feb_26_0910,59.9527072484,duckFrog,2,True,Animal,Frog1
216,frog,duckFront.png,frogFront.png,landoltCBottom.png,landoltCL.png,HinCong,b,quackL.wav,0.0,61.0,62.0,70.0,b,0.8505697788500001,2020_Feb_26_0910,59.9527072484,duckFrog,2,True,Animal,Frog1
217,frog,duckFront.png,frogFront.png,landoltCTop.png,landoltCL.png,HinCong,h,quackL.wav,0.0,67.0,68.0,78.0,h,0.700948214042,2020_Feb_26_0910,59.9527072484,duckFrog,2,True,Animal,Frog1
218,frog,duckFront.png,frogFront.png,landoltCBottom.png,landoltCL.png,HinCong,b,quackL.wav,0.0,71.0,72.0,38.0,b,0.767641370694,2020_Feb_26_0910,59.9527072484,duckFrog,2,True,Animal,Frog1
219,frog,frogFront.png,duckFront.png,landoltCL.png,landoltCBottom.png,HinCong,b,quackR.wav,0.0,75.0,76.0,66.0,b,0.5506309208429999,2020_Feb_26_0910,59.9527072484,duckFrog,2,True,Animal,Frog1
220,frog,duckFront.png,frogFront.png,landoltCTop.png,landoltCL.png,HinCong,h,quackL.wav,0.0,76.0,77.0,30.0,h,0.733924934655,2020_Feb_26_0910,59.9527072484,duckFrog,2,True,Animal,Frog1
221,frog,frogFront.png,duckFront.png,landoltCL.png,landoltCBottom.png,HinCong,b,quackR.wav,0.0,78.0,79.0,50.0,b,1.05078707484,2020_Feb_26_0910,59.9527072484,duckFrog,2,True,Animal,Frog1
222,frog,frogFront.png,duckFront.png,landoltCL.png,landoltCBottom.png,HinCong,b,quackR.wav,1.0,1.0,82.0,18.0,b,0.584145749614,2020_Feb_26_0910,59.9527072484,duckFrog,2,True,Animal,Frog1
223,frog,duckFront.png,frogFront.png,landoltCTop.png,landoltCL.png,HinCong,h,quackL.wav,1.0,9.0,90.0,46.0,h,0.917501931763,2020_Feb_26_0910,59.9527072484,duckFrog,2,True,Animal,Frog1
224,frog,duckFront.png,frogFront.png,landoltCBottom.png,landoltCL.png,HinCong,b,quackL.wav,1.0,13.0,94.0,70.0,b,0.700885899074,2020_Feb_26_0910,59.9527072484,duckFrog,2,True,Animal,Frog1
225,frog,frogFront.png,duckFront.png,landoltCL.png,landoltCBottom.png,HinCong,b,quackR.wav,1.0,15.0,96.0,66.0,b,0.633768267464,2020_Feb_26_0910,59.9527072484,duckFrog,2,True,Animal,Frog1
226,frog,frogFront.png,duckFront.png,landoltCR.png,landoltCTop.png,HinCong,h,quackR.wav,1.0,19.0,100.0,74.0,h,0.667327449817,2020_Feb_26_0910,59.9527072484,duckFrog,2,True,Animal,Frog1
227,frog,frogFront.png,duckFront.png,landoltCL.png,landoltCBottom.png,HinCong,b,quackR.wav,1.0,42.0,123.0,50.0,b,0.633823984375,2020_Feb_26_0910,59.9527072484,duckFrog,2,True,Animal,Frog1
228,frog,duckFront.png,frogFront.png,landoltCTop.png,landoltCL.png,HinCong,h,quackL.wav,1.0,51.0,132.0,62.0,h,0.667217115653,2020_Feb_26_0910,59.9527072484,duckFrog,2,True,Animal,Frog1
229,frog,duckFront.png,frogFront.png,landoltCBottom.png,landoltCL.png,HinCong,b,quackL.wav,1.0,52.0,133.0,22.0,b,0.700782162952,2020_Feb_26_0910,59.9527072484,duckFrog,2,True,Animal,Frog1
230,frog,duckFront.png,frogFront.png,landoltCTop.png,landoltCL.png,HinCong,h,quackL.wav,1.0,56.0,137.0,78.0,h,0.6674110252059999,2020_Feb_26_0910,59.9527072484,duckFrog,2,True,Animal,Frog1
231,frog,duckFront.png,frogFront.png,landoltCBottom.png,landoltCL.png,HinCong,b,quackL.wav,1.0,57.0,138.0,38.0,b,0.734272798858,2020_Feb_26_0910,59.9527072484,duckFrog,2,True,Animal,Frog1
232,frog,frogFront.png,duckFront.png,landoltCR.png,landoltCTop.png,HinCong,h,quackR.wav,1.0,60.0,141.0,58.0,h,0.683568199718,2020_Feb_26_0910,59.9527072484,duckFrog,2,True,Animal,Frog1
233,frog,duckFront.png,frogFront.png,landoltCBottom.png,landoltCL.png,HinCong,b,quackL.wav,1.0,70.0,151.0,54.0,b,0.684142230632,2020_Feb_26_0910,59.9527072484,duckFrog,2,True,Animal,Frog1
234,frog,frogFront.png,duckFront.png,landoltCR.png,landoltCTop.png,HinCong,h,quackR.wav,1.0,71.0,152.0,26.0,h,0.7674133711839999,2020_Feb_26_0910,59.9527072484,duckFrog,2,True,Animal,Frog1
235,frog,frogFront.png,duckFront.png,landoltCR.png,landoltCTop.png,HinCong,h,quackR.wav,1.0,79.0,160.0,42.0,h,0.7094996620290001,2020_Feb_26_0910,59.9527072484,duckFrog,2,True,Animal,Frog1
236,frog,duckFront.png,frogFront.png,landoltCBottom.png,landoltCL.png,HinCong,b,quackL.wav,2.0,0.0,161.0,54.0,b,0.6839578516079999,2020_Feb_26_0910,59.9527072484,duckFrog,2,True,Animal,Frog1
237,frog,frogFront.png,duckFront.png,landoltCR.png,landoltCTop.png,HinCong,h,quackR.wav,2.0,5.0,166.0,58.0,h,0.850632093818,2020_Feb_26_0910,59.9527072484,duckFrog,2,True,Animal,Frog1
238,frog,frogFront.png,duckFront.png,landoltCL.png,landoltCBottom.png,HinCong,b,quackR.wav,2.0,11.0,172.0,18.0,b,0.800483197687,2020_Feb_26_0910,59.9527072484,duckFrog,2,True,Animal,Frog1
239,frog,duckFront.png,frogFront.png,landoltCTop.png,landoltCL.png,HinCong,h,quackL.wav,2.0,12.0,173.0,30.0,h,0.683511016556,2020_Feb_26_0910,59.9527072484,duckFrog,2,True,Animal,Frog1
240,frog,duckFront.png,frogFront.png,landoltCTop.png,landoltCL.png,HinCong,h,quackL.wav,2.0,14.0,175.0,46.0,h,0.566808256073,2020_Feb_26_0910,59.9527072484,duckFrog,2,True,Animal,Frog1
241,frog,frogFront.png,duckFront.png,landoltCL.png,landoltCBottom.png,HinCong,b,quackR.wav,2.0,15.0,176.0,66.0,b,0.683776771621,2020_Feb_26_0910,59.9527072484,duckFrog,2,True,Animal,Frog1
242,frog,frogFront.png,duckFront.png,landoltCR.png,landoltCTop.png,HinCong,h,quackR.wav,2.0,23.0,184.0,26.0,b,0.40039353742,2020_Feb_26_0910,59.9527072484,duckFrog,2,False,Animal,Frog1
243,frog,frogFront.png,duckFront.png,landoltCR.png,landoltCTop.png,HinCong,h,quackR.wav,2.0,24.0,185.0,42.0,h,0.901099896044,2020_Feb_26_0910,59.9527072484,duckFrog,2,True,Animal,Frog1
244,frog,frogFront.png,duckFront.png,landoltCL.png,landoltCBottom.png,HinCong,b,quackR.wav,2.0,34.0,195.0,34.0,b,0.8175171805920001,2020_Feb_26_0910,59.9527072484,duckFrog,2,True,Animal,Frog1
245,frog,duckFront.png,frogFront.png,landoltCTop.png,landoltCL.png,HinCong,h,quackL.wav,2.0,47.0,208.0,62.0,h,0.951042786197,2020_Feb_26_0910,59.9527072484,duckFrog,2,True,Animal,Frog1
246,frog,duckFront.png,frogFront.png,landoltCBottom.png,landoltCL.png,HinCong,b,quackL.wav,2.0,53.0,214.0,70.0,b,1.05107848902,2020_Feb_26_0910,59.9527072484,duckFrog,2,True,Animal,Frog1
247,frog,frogFront.png,duckFront.png,landoltCL.png,landoltCBottom.png,HinCong,b,quackR.wav,2.0,55.0,216.0,50.0,b,0.9340813819,2020_Feb_26_0910,59.9527072484,duckFrog,2,True,Animal,Frog1
248,frog,duckFront.png,frogFront.png,landoltCTop.png,landoltCL.png,HinCong,h,quackL.wav,2.0,56.0,217.0,78.0,h,0.667377668375,2020_Feb_26_0910,59.9527072484,duckFrog,2,True,Animal,Frog1
249,frog,duckFront.png,frogFront.png,landoltCBottom.png,landoltCL.png,HinCong,b,quackL.wav,3.0,1.0,242.0,70.0,b,0.9343420051450001,2020_Feb_26_0910,59.9527072484,duckFrog,2,True,Animal,Frog1
250,frog,frogFront.png,duckFront.png,landoltCL.png,landoltCBottom.png,HinCong,b,quackR.wav,3.0,11.0,252.0,18.0,b,0.750930692535,2020_Feb_26_0910,59.9527072484,duckFrog,2,True,Animal,Frog1
251,frog,frogFront.png,duckFront.png,landoltCL.png,landoltCBottom.png,HinCong,b,quackR.wav,3.0,12.0,253.0,34.0,b,0.583961004013,2020_Feb_26_0910,59.9527072484,duckFrog,2,True,Animal,Frog1
252,frog,duckFront.png,frogFront.png,landoltCBottom.png,landoltCL.png,HinCong,b,quackL.wav,3.0,13.0,254.0,54.0,b,0.66734761055,2020_Feb_26_0910,59.9527072484,duckFrog,2,True,Animal,Frog1
253,frog,duckFront.png,frogFront.png,landoltCTop.png,landoltCL.png,HinCong,h,quackL.wav,3.0,23.0,264.0,46.0,h,0.517068806002,2020_Feb_26_0910,59.9527072484,duckFrog,2,True,Animal,Frog1
254,frog,frogFront.png,duckFront.png,landoltCR.png,landoltCTop.png,HinCong,h,quackR.wav,3.0,24.0,265.0,42.0,h,0.700446761752,2020_Feb_26_0910,59.9527072484,duckFrog,2,True,Animal,Frog1
255,frog,frogFront.png,duckFront.png,landoltCL.png,landoltCBottom.png,HinCong,b,quackR.wav,3.0,31.0,272.0,50.0,b,0.700470221505,2020_Feb_26_0910,59.9527072484,duckFrog,2,True,Animal,Frog1
256,frog,duckFront.png,frogFront.png,landoltCBottom.png,landoltCL.png,HinCong,b,quackL.wav,3.0,36.0,277.0,22.0,b,0.550409885953,2020_Feb_26_0910,59.9527072484,duckFrog,2,True,Animal,Frog1
257,frog,frogFront.png,duckFront.png,landoltCR.png,landoltCTop.png,HinCong,h,quackR.wav,3.0,38.0,279.0,26.0,h,0.650476746247,2020_Feb_26_0910,59.9527072484,duckFrog,2,True,Animal,Frog1
258,frog,duckFront.png,frogFront.png,landoltCTop.png,landoltCL.png,HinCong,h,quackL.wav,3.0,42.0,283.0,62.0,h,0.63387640228,2020_Feb_26_0910,59.9527072484,duckFrog,2,True,Animal,Frog1
259,frog,duckFront.png,frogFront.png,landoltCBottom.png,landoltCL.png,HinCong,b,quackL.wav,3.0,50.0,291.0,38.0,b,0.43392999314499997,2020_Feb_26_0910,59.9527072484,duckFrog,2,True,Animal,Frog1
260,frog,duckFront.png,frogFront.png,landoltCTop.png,landoltCL.png,HinCong,h,quackL.wav,3.0,52.0,293.0,30.0,h,0.534049271344,2020_Feb_26_0910,59.9527072484,duckFrog,2,True,Animal,Frog1
261,frog,frogFront.png,duckFront.png,landoltCR.png,landoltCTop.png,HinCong,h,quackR.wav,3.0,56.0,297.0,74.0,h,0.633810788262,2020_Feb_26_0910,59.9527072484,duckFrog,2,True,Animal,Frog1
262,frog,frogFront.png,duckFront.png,landoltCR.png,landoltCTop.png,HinCong,h,quackR.wav,3.0,60.0,301.0,58.0,h,0.53390887937,2020_Feb_26_0910,59.9527072484,duckFrog,2,True,Animal,Frog1
263,frog,duckFront.png,frogFront.png,landoltCTop.png,landoltCL.png,HinCong,h,quackL.wav,3.0,67.0,308.0,78.0,h,0.517245853844,2020_Feb_26_0910,59.9527072484,duckFrog,2,True,Animal,Frog1
264,frog,frogFront.png,duckFront.png,landoltCL.png,landoltCBottom.png,HinCong,b,quackR.wav,3.0,74.0,315.0,66.0,b,0.634050517649,2020_Feb_26_0910,59.9527072484,duckFrog,2,True,Animal,Frog1
265,frog,frogFront.png,duckFront.png,landoltCL.png,landoltCBottom.png,HinCong,b,quackR.wav,4.0,3.0,324.0,18.0,b,0.484017673996,2020_Feb_26_0910,59.9527072484,duckFrog,2,True,Animal,Frog1
266,frog,duckFront.png,frogFront.png,landoltCTop.png,landoltCL.png,HinCong,h,quackL.wav,4.0,11.0,332.0,78.0,h,0.617293653107,2020_Feb_26_0910,59.9527072484,duckFrog,2,True,Animal,Frog1
267,frog,duckFront.png,frogFront.png,landoltCBottom.png,landoltCL.png,HinCong,b,quackL.wav,4.0,12.0,333.0,38.0,b,0.667379134597,2020_Feb_26_0910,59.9527072484,duckFrog,2,True,Animal,Frog1
268,frog,duckFront.png,frogFront.png,landoltCBottom.png,landoltCL.png,HinCong,b,quackL.wav,4.0,37.0,358.0,22.0,b,0.483661012375,2020_Feb_26_0910,59.9527072484,duckFrog,2,True,Animal,Frog1
269,frog,frogFront.png,duckFront.png,landoltCL.png,landoltCBottom.png,HinCong,b,quackR.wav,4.0,41.0,362.0,34.0,b,0.600227046452,2020_Feb_26_0910,59.9527072484,duckFrog,2,True,Animal,Frog1
270,frog,duckFront.png,frogFront.png,landoltCTop.png,landoltCL.png,HinCong,h,quackL.wav,4.0,44.0,365.0,62.0,h,0.7007231470199999,2020_Feb_26_0910,59.9527072484,duckFrog,2,True,Animal,Frog1
271,frog,duckFront.png,frogFront.png,landoltCTop.png,landoltCL.png,HinCong,h,quackL.wav,4.0,45.0,366.0,30.0,h,0.767440863085,2020_Feb_26_0910,59.9527072484,duckFrog,2,True,Animal,Frog1
272,frog,duckFront.png,frogFront.png,landoltCBottom.png,landoltCL.png,HinCong,b,quackL.wav,4.0,47.0,368.0,54.0,b,0.833935344897,2020_Feb_26_0910,59.9527072484,duckFrog,2,True,Animal,Frog1
273,frog,frogFront.png,duckFront.png,landoltCR.png,landoltCTop.png,HinCong,h,quackR.wav,4.0,51.0,372.0,26.0,h,0.7004090062109999,2020_Feb_26_0910,59.9527072484,duckFrog,2,True,Animal,Frog1
274,frog,frogFront.png,duckFront.png,landoltCR.png,landoltCTop.png,HinCong,h,quackR.wav,4.0,54.0,375.0,58.0,h,0.43391789672,2020_Feb_26_0910,59.9527072484,duckFrog,2,True,Animal,Frog1
275,frog,duckFront.png,frogFront.png,landoltCTop.png,landoltCL.png,HinCong,h,quackL.wav,4.0,58.0,379.0,46.0,b,0.466703640224,2020_Feb_26_0910,59.9527072484,duckFrog,2,False,Animal,Frog1
276,frog,frogFront.png,duckFront.png,landoltCR.png,landoltCTop.png,HinCong,h,quackR.wav,4.0,62.0,383.0,42.0,h,0.517459924129,2020_Feb_26_0910,59.9527072484,duckFrog,2,True,Animal,Frog1
277,frog,frogFront.png,duckFront.png,landoltCL.png,landoltCBottom.png,HinCong,b,quackR.wav,4.0,67.0,388.0,66.0,b,0.5504494742930001,2020_Feb_26_0910,59.9527072484,duckFrog,2,True,Animal,Frog1
278,frog,duckFront.png,frogFront.png,landoltCBottom.png,landoltCL.png,HinCong,b,quackL.wav,4.0,73.0,394.0,70.0,b,0.400306296462,2020_Feb_26_0910,59.9527072484,duckFrog,2,True,Animal,Frog1
279,frog,frogFront.png,duckFront.png,landoltCR.png,landoltCTop.png,HinCong,h,quackR.wav,4.0,76.0,397.0,74.0,h,0.9837478867849999,2020_Feb_26_0910,59.9527072484,duckFrog,2,True,Animal,Frog1
280,frog,frogFront.png,duckFront.png,landoltCR.png,landoltCTop.png,HinCong,h,quackR.wav,5.0,1.0,402.0,58.0,h,0.466759723698,2020_Feb_26_0910,59.9527072484,duckFrog,2,True,Animal,Frog1
281,frog,frogFront.png,duckFront.png,landoltCL.png,landoltCBottom.png,HinCong,b,quackR.wav,5.0,9.0,410.0,18.0,b,0.5669449824639999,2020_Feb_26_0910,59.9527072484,duckFrog,2,True,Animal,Frog1
282,frog,frogFront.png,duckFront.png,landoltCL.png,landoltCBottom.png,HinCong,b,quackR.wav,5.0,15.0,416.0,34.0,b,0.6004106923789999,2020_Feb_26_0910,59.9527072484,duckFrog,2,True,Animal,Frog1
283,frog,frogFront.png,duckFront.png,landoltCL.png,landoltCBottom.png,HinCong,b,quackR.wav,5.0,16.0,417.0,66.0,b,0.550647049429,2020_Feb_26_0910,59.9527072484,duckFrog,2,True,Animal,Frog1
284,frog,frogFront.png,duckFront.png,landoltCL.png,landoltCBottom.png,HinCong,b,quackR.wav,5.0,21.0,422.0,50.0,b,0.734150368255,2020_Feb_26_0910,59.9527072484,duckFrog,2,True,Animal,Frog1
285,frog,duckFront.png,frogFront.png,landoltCTop.png,landoltCL.png,HinCong,h,quackL.wav,5.0,22.0,423.0,30.0,h,0.516939044217,2020_Feb_26_0910,59.9527072484,duckFrog,2,True,Animal,Frog1
286,frog,frogFront.png,duckFront.png,landoltCR.png,landoltCTop.png,HinCong,h,quackR.wav,5.0,28.0,429.0,42.0,h,0.40002074721299996,2020_Feb_26_0910,59.9527072484,duckFrog,2,True,Animal,Frog1
287,frog,duckFront.png,frogFront.png,landoltCBottom.png,landoltCL.png,HinCong,b,quackL.wav,5.0,33.0,434.0,22.0,b,0.567267554128,2020_Feb_26_0910,59.9527072484,duckFrog,2,True,Animal,Frog1
288,frog,duckFront.png,frogFront.png,landoltCBottom.png,landoltCL.png,HinCong,b,quackL.wav,5.0,34.0,435.0,70.0,b,0.467412564758,2020_Feb_26_0910,59.9527072484,duckFrog,2,True,Animal,Frog1
289,frog,duckFront.png,frogFront.png,landoltCBottom.png,landoltCL.png,HinCong,b,quackL.wav,5.0,36.0,437.0,54.0,b,0.48357707043799997,2020_Feb_26_0910,59.9527072484,duckFrog,2,True,Animal,Frog1
290,frog,duckFront.png,frogFront.png,landoltCTop.png,landoltCL.png,HinCong,h,quackL.wav,5.0,48.0,449.0,46.0,h,0.316839780135,2020_Feb_26_0910,59.9527072484,duckFrog,2,True,Animal,Frog1
291,frog,duckFront.png,frogFront.png,landoltCBottom.png,landoltCL.png,HinCong,b,quackL.wav,5.0,52.0,453.0,38.0,b,0.767229725272,2020_Feb_26_0910,59.9527072484,duckFrog,2,True,Animal,Frog1
292,frog,duckFront.png,frogFront.png,landoltCTop.png,landoltCL.png,HinCong,h,quackL.wav,5.0,57.0,458.0,78.0,h,0.40017690123899996,2020_Feb_26_0910,59.9527072484,duckFrog,2,True,Animal,Frog1
293,frog,frogFront.png,duckFront.png,landoltCR.png,landoltCTop.png,HinCong,h,quackR.wav,5.0,67.0,468.0,26.0,h,0.466973060873,2020_Feb_26_0910,59.9527072484,duckFrog,2,True,Animal,Frog1
294,frog,duckFront.png,frogFront.png,landoltCTop.png,landoltCL.png,HinCong,h,quackL.wav,5.0,68.0,469.0,62.0,h,0.5337318315290001,2020_Feb_26_0910,59.9527072484,duckFrog,2,True,Animal,Frog1
295,frog,frogFront.png,duckFront.png,landoltCR.png,landoltCTop.png,HinCong,h,quackR.wav,5.0,69.0,470.0,74.0,h,0.617056489617,2020_Feb_26_0910,59.9527072484,duckFrog,2,True,Animal,Frog1
296,frog,duckFront.png,frogFront.png,landoltCTop.png,landoltCL.png,HinCong,h,quackL.wav,6.0,3.0,484.0,46.0,h,0.467212423697,2020_Feb_26_0910,59.9527072484,duckFrog,2,True,Animal,Frog1
297,frog,duckFront.png,frogFront.png,landoltCTop.png,landoltCL.png,HinCong,h,quackL.wav,6.0,5.0,486.0,78.0,h,0.283620764225,2020_Feb_26_0910,59.9527072484,duckFrog,2,True,Animal,Frog1
298,frog,duckFront.png,frogFront.png,landoltCTop.png,landoltCL.png,HinCong,h,quackL.wav,6.0,19.0,500.0,30.0,h,0.5673566278859999,2020_Feb_26_0910,59.9527072484,duckFrog,2,True,Animal,Frog1
299,frog,duckFront.png,frogFront.png,landoltCTop.png,landoltCL.png,HinCong,h,quackL.wav,6.0,29.0,510.0,62.0,h,0.383588653684,2020_Feb_26_0910,59.9527072484,duckFrog,2,True,Animal,Frog1
300,frog,duckFront.png,frogFront.png,landoltCBottom.png,landoltCL.png,HinCong,b,quackL.wav,6.0,30.0,511.0,70.0,b,0.400569852165,2020_Feb_26_0910,59.9527072484,duckFrog,2,True,Animal,Frog1
301,frog,frogFront.png,duckFront.png,landoltCR.png,landoltCTop.png,HinCong,h,quackR.wav,6.0,33.0,514.0,42.0,h,0.383599650449,2020_Feb_26_0910,59.9527072484,duckFrog,2,True,Animal,Frog1
302,frog,frogFront.png,duckFront.png,landoltCR.png,landoltCTop.png,HinCong,h,quackR.wav,6.0,35.0,516.0,58.0,h,0.6008043764159999,2020_Feb_26_0910,59.9527072484,duckFrog,2,True,Animal,Frog1
303,frog,frogFront.png,duckFront.png,landoltCL.png,landoltCBottom.png,HinCong,b,quackR.wav,6.0,41.0,522.0,66.0,b,0.500396249961,2020_Feb_26_0910,59.9527072484,duckFrog,2,True,Animal,Frog1
304,frog,frogFront.png,duckFront.png,landoltCL.png,landoltCBottom.png,HinCong,b,quackR.wav,6.0,42.0,523.0,18.0,b,0.333865698747,2020_Feb_26_0910,59.9527072484,duckFrog,2,True,Animal,Frog1
305,frog,frogFront.png,duckFront.png,landoltCR.png,landoltCTop.png,HinCong,h,quackR.wav,6.0,50.0,531.0,26.0,h,0.366639345826,2020_Feb_26_0910,59.9527072484,duckFrog,2,True,Animal,Frog1
306,frog,frogFront.png,duckFront.png,landoltCR.png,landoltCTop.png,HinCong,h,quackR.wav,6.0,56.0,537.0,74.0,h,0.617346804123,2020_Feb_26_0910,59.9527072484,duckFrog,2,True,Animal,Frog1
307,frog,duckFront.png,frogFront.png,landoltCBottom.png,landoltCL.png,HinCong,b,quackL.wav,6.0,59.0,540.0,54.0,b,0.50062351636,2020_Feb_26_0910,59.9527072484,duckFrog,2,True,Animal,Frog1
308,frog,duckFront.png,frogFront.png,landoltCBottom.png,landoltCL.png,HinCong,b,quackL.wav,6.0,60.0,541.0,38.0,b,0.400584147952,2020_Feb_26_0910,59.9527072484,duckFrog,2,True,Animal,Frog1
309,frog,frogFront.png,duckFront.png,landoltCL.png,landoltCBottom.png,HinCong,b,quackR.wav,6.0,61.0,542.0,34.0,b,0.517069172565,2020_Feb_26_0910,59.9527072484,duckFrog,2,True,Animal,Frog1
310,frog,duckFront.png,frogFront.png,landoltCBottom.png,landoltCL.png,HinCong,b,quackL.wav,6.0,62.0,543.0,22.0,b,0.500111433837,2020_Feb_26_0910,59.9527072484,duckFrog,2,True,Animal,Frog1
311,frog,frogFront.png,duckFront.png,landoltCL.png,landoltCBottom.png,HinCong,b,quackR.wav,6.0,71.0,552.0,50.0,b,0.46742759365599995,2020_Feb_26_0910,59.9527072484,duckFrog,2,True,Animal,Frog1
312,frog,frogFront.png,duckFront.png,landoltCR.png,landoltCBottom.png,HinCongWN,b,wnR.wav,0.0,12.0,13.0,35.0,b,0.5840321164,2020_Feb_26_0910,59.9527072484,duckFrog,2,True,White Noise,Frog1
313,frog,duckFront.png,frogFront.png,landoltCBottom.png,landoltCR.png,HinCongWN,b,wnL.wav,0.0,15.0,16.0,23.0,b,0.817669302472,2020_Feb_26_0910,59.9527072484,duckFrog,2,True,White Noise,Frog1
314,frog,duckFront.png,frogFront.png,landoltCTop.png,landoltCR.png,HinCongWN,h,wnL.wav,0.0,21.0,22.0,79.0,h,0.984196921199,2020_Feb_26_0910,59.9527072484,duckFrog,2,True,White Noise,Frog1
315,frog,frogFront.png,duckFront.png,landoltCL.png,landoltCTop.png,HinCongWN,h,wnR.wav,0.0,32.0,33.0,43.0,h,0.967217188954,2020_Feb_26_0910,59.9527072484,duckFrog,2,True,White Noise,Frog1
316,frog,frogFront.png,duckFront.png,landoltCL.png,landoltCTop.png,HinCongWN,h,wnR.wav,0.0,34.0,35.0,27.0,h,0.750814126877,2020_Feb_26_0910,59.9527072484,duckFrog,2,True,White Noise,Frog1
317,frog,frogFront.png,duckFront.png,landoltCR.png,landoltCBottom.png,HinCongWN,b,wnR.wav,0.0,36.0,37.0,67.0,b,0.667169096458,2020_Feb_26_0910,59.9527072484,duckFrog,2,True,White Noise,Frog1
318,frog,duckFront.png,frogFront.png,landoltCBottom.png,landoltCR.png,HinCongWN,b,wnL.wav,0.0,42.0,43.0,39.0,b,0.784063200583,2020_Feb_26_0910,59.9527072484,duckFrog,2,True,White Noise,Frog1
319,frog,duckFront.png,frogFront.png,landoltCTop.png,landoltCR.png,HinCongWN,h,wnL.wav,0.0,43.0,44.0,63.0,h,1.00026318915,2020_Feb_26_0910,59.9527072484,duckFrog,2,True,White Noise,Frog1
320,frog,duckFront.png,frogFront.png,landoltCTop.png,landoltCR.png,HinCongWN,h,wnL.wav,0.0,46.0,47.0,31.0,h,1.2511920489100001,2020_Feb_26_0910,59.9527072484,duckFrog,2,True,White Noise,Frog1
321,frog,frogFront.png,duckFront.png,landoltCR.png,landoltCBottom.png,HinCongWN,b,wnR.wav,0.0,48.0,49.0,51.0,b,0.85078384912,2020_Feb_26_0910,59.9527072484,duckFrog,2,True,White Noise,Frog1
322,frog,duckFront.png,frogFront.png,landoltCBottom.png,landoltCR.png,HinCongWN,b,wnL.wav,0.0,54.0,55.0,55.0,b,0.951015294282,2020_Feb_26_0910,59.9527072484,duckFrog,2,True,White Noise,Frog1
323,frog,duckFront.png,frogFront.png,landoltCBottom.png,landoltCR.png,HinCongWN,b,wnL.wav,0.0,55.0,56.0,71.0,b,0.800834727474,2020_Feb_26_0910,59.9527072484,duckFrog,2,True,White Noise,Frog1
324,frog,duckFront.png,frogFront.png,landoltCTop.png,landoltCR.png,HinCongWN,h,wnL.wav,0.0,57.0,58.0,47.0,h,0.6840564559100001,2020_Feb_26_0910,59.9527072484,duckFrog,2,True,White Noise,Frog1
325,frog,frogFront.png,duckFront.png,landoltCL.png,landoltCTop.png,HinCongWN,h,wnR.wav,0.0,64.0,65.0,75.0,h,0.800610026999,2020_Feb_26_0910,59.9527072484,duckFrog,2,True,White Noise,Frog1
326,frog,frogFront.png,duckFront.png,landoltCR.png,landoltCBottom.png,HinCongWN,b,wnR.wav,0.0,74.0,75.0,19.0,b,1.03448400999,2020_Feb_26_0910,59.9527072484,duckFrog,2,True,White Noise,Frog1
327,frog,frogFront.png,duckFront.png,landoltCR.png,landoltCBottom.png,HinCongWN,b,wnR.wav,1.0,3.0,84.0,51.0,b,0.6842708927429999,2020_Feb_26_0910,59.9527072484,duckFrog,2,True,White Noise,Frog1
328,frog,duckFront.png,frogFront.png,landoltCBottom.png,landoltCR.png,HinCongWN,b,wnL.wav,1.0,12.0,93.0,55.0,b,0.76743316534,2020_Feb_26_0910,59.9527072484,duckFrog,2,True,White Noise,Frog1
329,frog,frogFront.png,duckFront.png,landoltCR.png,landoltCBottom.png,HinCongWN,b,wnR.wav,1.0,22.0,103.0,19.0,b,0.7507712395020001,2020_Feb_26_0910,59.9527072484,duckFrog,2,True,White Noise,Frog1
330,frog,duckFront.png,frogFront.png,landoltCBottom.png,landoltCR.png,HinCongWN,b,wnL.wav,1.0,23.0,104.0,23.0,b,0.7171541408609999,2020_Feb_26_0910,59.9527072484,duckFrog,2,True,White Noise,Frog1
331,frog,duckFront.png,frogFront.png,landoltCTop.png,landoltCR.png,HinCongWN,h,wnL.wav,1.0,30.0,111.0,63.0,h,0.867118438051,2020_Feb_26_0910,59.9527072484,duckFrog,2,True,White Noise,Frog1
332,frog,frogFront.png,duckFront.png,landoltCL.png,landoltCTop.png,HinCongWN,h,wnR.wav,1.0,35.0,116.0,75.0,h,0.7508174259129999,2020_Feb_26_0910,59.9527072484,duckFrog,2,True,White Noise,Frog1
333,frog,frogFront.png,duckFront.png,landoltCL.png,landoltCTop.png,HinCongWN,h,wnR.wav,1.0,40.0,121.0,43.0,h,0.7506088540100001,2020_Feb_26_0910,59.9527072484,duckFrog,2,True,White Noise,Frog1
334,frog,duckFront.png,frogFront.png,landoltCTop.png,landoltCR.png,HinCongWN,h,wnL.wav,1.0,41.0,122.0,31.0,h,0.45006150855599997,2020_Feb_26_0910,59.9527072484,duckFrog,2,True,White Noise,Frog1
335,frog,frogFront.png,duckFront.png,landoltCL.png,landoltCTop.png,HinCongWN,h,wnR.wav,1.0,45.0,126.0,27.0,h,0.46676375586,2020_Feb_26_0910,59.9527072484,duckFrog,2,True,White Noise,Frog1
336,frog,frogFront.png,duckFront.png,landoltCR.png,landoltCBottom.png,HinCongWN,b,wnR.wav,1.0,47.0,128.0,67.0,b,0.6505258651160001,2020_Feb_26_0910,59.9527072484,duckFrog,2,True,White Noise,Frog1
337,frog,duckFront.png,frogFront.png,landoltCBottom.png,landoltCR.png,HinCongWN,b,wnL.wav,1.0,55.0,136.0,71.0,h,0.666948061567,2020_Feb_26_0910,59.9527072484,duckFrog,2,False,White Noise,Frog1
338,frog,frogFront.png,duckFront.png,landoltCL.png,landoltCTop.png,HinCongWN,h,wnR.wav,1.0,58.0,139.0,59.0,h,0.7171240830500001,2020_Feb_26_0910,59.9527072484,duckFrog,2,True,White Noise,Frog1
339,frog,frogFront.png,duckFront.png,landoltCR.png,landoltCBottom.png,HinCongWN,b,wnR.wav,1.0,62.0,143.0,35.0,b,0.901084500583,2020_Feb_26_0910,59.9527072484,duckFrog,2,True,White Noise,Frog1
340,frog,duckFront.png,frogFront.png,landoltCTop.png,landoltCR.png,HinCongWN,h,wnL.wav,1.0,69.0,150.0,79.0,h,0.934278590474,2020_Feb_26_0910,59.9527072484,duckFrog,2,True,White Noise,Frog1
341,frog,duckFront.png,frogFront.png,landoltCTop.png,landoltCR.png,HinCongWN,h,wnL.wav,1.0,78.0,159.0,47.0,h,1.21758448078,2020_Feb_26_0910,59.9527072484,duckFrog,2,True,White Noise,Frog1
342,frog,frogFront.png,duckFront.png,landoltCR.png,landoltCBottom.png,HinCongWN,b,wnR.wav,2.0,1.0,162.0,51.0,b,0.850685611396,2020_Feb_26_0910,59.9527072484,duckFrog,2,True,White Noise,Frog1
343,frog,frogFront.png,duckFront.png,landoltCR.png,landoltCBottom.png,HinCongWN,b,wnR.wav,2.0,9.0,170.0,19.0,b,0.483876915459,2020_Feb_26_0910,59.9527072484,duckFrog,2,True,White Noise,Frog1
344,frog,duckFront.png,frogFront.png,landoltCBottom.png,landoltCR.png,HinCongWN,b,wnL.wav,2.0,16.0,177.0,55.0,b,0.533731464966,2020_Feb_26_0910,59.9527072484,duckFrog,2,True,White Noise,Frog1
345,frog,duckFront.png,frogFront.png,landoltCTop.png,landoltCR.png,HinCongWN,h,wnL.wav,2.0,17.0,178.0,79.0,h,0.650885825758,2020_Feb_26_0910,59.9527072484,duckFrog,2,True,White Noise,Frog1
346,frog,duckFront.png,frogFront.png,landoltCBottom.png,landoltCR.png,HinCongWN,b,wnL.wav,2.0,21.0,182.0,23.0,b,0.900966102112,2020_Feb_26_0910,59.9527072484,duckFrog,2,True,White Noise,Frog1
347,frog,duckFront.png,frogFront.png,landoltCTop.png,landoltCR.png,HinCongWN,h,wnL.wav,2.0,22.0,183.0,63.0,h,0.48393593139200003,2020_Feb_26_0910,59.9527072484,duckFrog,2,True,White Noise,Frog1
348,frog,duckFront.png,frogFront.png,landoltCBottom.png,landoltCR.png,HinCongWN,b,wnL.wav,2.0,26.0,187.0,39.0,b,0.85093340509,2020_Feb_26_0910,59.9527072484,duckFrog,2,True,White Noise,Frog1
349,frog,duckFront.png,frogFront.png,landoltCTop.png,landoltCR.png,HinCongWN,h,wnL.wav,2.0,44.0,205.0,47.0,h,0.86731637975,2020_Feb_26_0910,59.9527072484,duckFrog,2,True,White Noise,Frog1
350,frog,frogFront.png,duckFront.png,landoltCL.png,landoltCTop.png,HinCongWN,h,wnR.wav,2.0,48.0,209.0,27.0,h,0.867389691499,2020_Feb_26_0910,59.9527072484,duckFrog,2,True,White Noise,Frog1
351,frog,duckFront.png,frogFront.png,landoltCTop.png,landoltCR.png,HinCongWN,h,wnL.wav,2.0,59.0,220.0,31.0,h,0.650541993688,2020_Feb_26_0910,59.9527072484,duckFrog,2,True,White Noise,Frog1
352,frog,duckFront.png,frogFront.png,landoltCBottom.png,landoltCR.png,HinCongWN,b,wnL.wav,2.0,61.0,222.0,71.0,b,0.5336629184749999,2020_Feb_26_0910,59.9527072484,duckFrog,2,True,White Noise,Frog1
353,frog,frogFront.png,duckFront.png,landoltCR.png,landoltCBottom.png,HinCongWN,b,wnR.wav,2.0,64.0,225.0,67.0,b,0.584054109931,2020_Feb_26_0910,59.9527072484,duckFrog,2,True,White Noise,Frog1
354,frog,frogFront.png,duckFront.png,landoltCL.png,landoltCTop.png,HinCongWN,h,wnR.wav,2.0,65.0,226.0,75.0,h,0.56736432563,2020_Feb_26_0910,59.9527072484,duckFrog,2,True,White Noise,Frog1
355,frog,frogFront.png,duckFront.png,landoltCL.png,landoltCTop.png,HinCongWN,h,wnR.wav,2.0,71.0,232.0,59.0,h,0.650465749481,2020_Feb_26_0910,59.9527072484,duckFrog,2,True,White Noise,Frog1
356,frog,frogFront.png,duckFront.png,landoltCR.png,landoltCBottom.png,HinCongWN,b,wnR.wav,2.0,79.0,240.0,35.0,b,0.73415989877,2020_Feb_26_0910,59.9527072484,duckFrog,2,True,White Noise,Frog1
357,frog,frogFront.png,duckFront.png,landoltCR.png,landoltCBottom.png,HinCongWN,b,wnR.wav,3.0,3.0,244.0,19.0,b,0.617380527532,2020_Feb_26_0910,59.9527072484,duckFrog,2,True,White Noise,Frog1
358,frog,duckFront.png,frogFront.png,landoltCTop.png,landoltCR.png,HinCongWN,h,wnL.wav,3.0,7.0,248.0,31.0,h,0.834134386285,2020_Feb_26_0910,59.9527072484,duckFrog,2,True,White Noise,Frog1
359,frog,frogFront.png,duckFront.png,landoltCR.png,landoltCBottom.png,HinCongWN,b,wnR.wav,3.0,10.0,251.0,35.0,b,0.800583634773,2020_Feb_26_0910,59.9527072484,duckFrog,2,True,White Noise,Frog1
360,frog,duckFront.png,frogFront.png,landoltCBottom.png,landoltCR.png,HinCongWN,b,wnL.wav,3.0,21.0,262.0,39.0,b,0.684110706599,2020_Feb_26_0910,59.9527072484,duckFrog,2,True,White Noise,Frog1
361,frog,duckFront.png,frogFront.png,landoltCBottom.png,landoltCR.png,HinCongWN,b,wnL.wav,3.0,25.0,266.0,55.0,b,0.616933325902,2020_Feb_26_0910,59.9527072484,duckFrog,2,True,White Noise,Frog1
362,frog,frogFront.png,duckFront.png,landoltCR.png,landoltCBottom.png,HinCongWN,b,wnR.wav,3.0,29.0,270.0,67.0,b,0.684015767896,2020_Feb_26_0910,59.9527072484,duckFrog,2,True,White Noise,Frog1
363,frog,duckFront.png,frogFront.png,landoltCBottom.png,landoltCR.png,HinCongWN,b,wnL.wav,3.0,49.0,290.0,71.0,b,0.700663031384,2020_Feb_26_0910,59.9527072484,duckFrog,2,True,White Noise,Frog1
364,frog,duckFront.png,frogFront.png,landoltCTop.png,landoltCR.png,HinCongWN,h,wnL.wav,3.0,57.0,298.0,63.0,h,0.750618017977,2020_Feb_26_0910,59.9527072484,duckFrog,2,True,White Noise,Frog1
365,frog,frogFront.png,duckFront.png,landoltCL.png,landoltCTop.png,HinCongWN,h,wnR.wav,3.0,59.0,300.0,27.0,h,0.617349003471,2020_Feb_26_0910,59.9527072484,duckFrog,2,True,White Noise,Frog1
366,frog,duckFront.png,frogFront.png,landoltCBottom.png,landoltCR.png,HinCongWN,b,wnL.wav,3.0,62.0,303.0,23.0,h,0.5001788806549999,2020_Feb_26_0910,59.9527072484,duckFrog,2,False,White Noise,Frog1
367,frog,frogFront.png,duckFront.png,landoltCL.png,landoltCTop.png,HinCongWN,h,wnR.wav,3.0,64.0,305.0,59.0,h,0.584011222556,2020_Feb_26_0910,59.9527072484,duckFrog,2,True,White Noise,Frog1
368,frog,duckFront.png,frogFront.png,landoltCTop.png,landoltCR.png,HinCongWN,h,wnL.wav,3.0,66.0,307.0,79.0,h,0.41705253078500004,2020_Feb_26_0910,59.9527072484,duckFrog,2,True,White Noise,Frog1
369,frog,frogFront.png,duckFront.png,landoltCR.png,landoltCBottom.png,HinCongWN,b,wnR.wav,3.0,69.0,310.0,51.0,b,0.567398049025,2020_Feb_26_0910,59.9527072484,duckFrog,2,True,White Noise,Frog1
370,frog,frogFront.png,duckFront.png,landoltCL.png,landoltCTop.png,HinCongWN,h,wnR.wav,3.0,79.0,320.0,75.0,h,0.450741474939,2020_Feb_26_0910,59.9527072484,duckFrog,2,True,White Noise,Frog1
371,frog,frogFront.png,duckFront.png,landoltCR.png,landoltCBottom.png,HinCongWN,b,wnR.wav,4.0,1.0,322.0,35.0,b,0.433947221405,2020_Feb_26_0910,59.9527072484,duckFrog,2,True,White Noise,Frog1
372,frog,frogFront.png,duckFront.png,landoltCL.png,landoltCTop.png,HinCongWN,h,wnR.wav,4.0,2.0,323.0,43.0,h,0.484001178847,2020_Feb_26_0910,59.9527072484,duckFrog,2,True,White Noise,Frog1
373,frog,duckFront.png,frogFront.png,landoltCTop.png,landoltCR.png,HinCongWN,h,wnL.wav,4.0,18.0,339.0,79.0,h,0.500334301541,2020_Feb_26_0910,59.9527072484,duckFrog,2,True,White Noise,Frog1
374,frog,frogFront.png,duckFront.png,landoltCR.png,landoltCBottom.png,HinCongWN,b,wnR.wav,4.0,19.0,340.0,19.0,b,0.6337587369200001,2020_Feb_26_0910,59.9527072484,duckFrog,2,True,White Noise,Frog1
375,frog,frogFront.png,duckFront.png,landoltCR.png,landoltCBottom.png,HinCongWN,b,wnR.wav,4.0,21.0,342.0,51.0,b,0.567300910974,2020_Feb_26_0910,59.9527072484,duckFrog,2,True,White Noise,Frog1
376,frog,frogFront.png,duckFront.png,landoltCR.png,landoltCBottom.png,HinCongWN,b,wnR.wav,4.0,22.0,343.0,67.0,b,0.46725751041999997,2020_Feb_26_0910,59.9527072484,duckFrog,2,True,White Noise,Frog1
377,frog,duckFront.png,frogFront.png,landoltCBottom.png,landoltCR.png,HinCongWN,b,wnL.wav,4.0,23.0,344.0,55.0,b,0.767274445432,2020_Feb_26_0910,59.9527072484,duckFrog,2,True,White Noise,Frog1
378,frog,frogFront.png,duckFront.png,landoltCL.png,landoltCTop.png,HinCongWN,h,wnR.wav,4.0,24.0,345.0,75.0,h,0.667138672099,2020_Feb_26_0910,59.9527072484,duckFrog,2,True,White Noise,Frog1
379,frog,duckFront.png,frogFront.png,landoltCBottom.png,landoltCR.png,HinCongWN,b,wnL.wav,4.0,34.0,355.0,71.0,b,0.43383102229599996,2020_Feb_26_0910,59.9527072484,duckFrog,2,True,White Noise,Frog1
380,frog,duckFront.png,frogFront.png,landoltCTop.png,landoltCR.png,HinCongWN,h,wnL.wav,4.0,38.0,359.0,47.0,h,0.650688250622,2020_Feb_26_0910,59.9527072484,duckFrog,2,True,White Noise,Frog1
381,frog,duckFront.png,frogFront.png,landoltCTop.png,landoltCR.png,HinCongWN,h,wnL.wav,4.0,42.0,363.0,63.0,h,0.46707056547200004,2020_Feb_26_0910,59.9527072484,duckFrog,2,True,White Noise,Frog1
382,frog,duckFront.png,frogFront.png,landoltCTop.png,landoltCR.png,HinCongWN,h,wnL.wav,4.0,43.0,364.0,31.0,h,0.617395922993,2020_Feb_26_0910,59.9527072484,duckFrog,2,True,White Noise,Frog1
383,frog,frogFront.png,duckFront.png,landoltCL.png,landoltCTop.png,HinCongWN,h,wnR.wav,4.0,53.0,374.0,27.0,h,0.6506427973510001,2020_Feb_26_0910,59.9527072484,duckFrog,2,True,White Noise,Frog1
384,frog,frogFront.png,duckFront.png,landoltCL.png,landoltCTop.png,HinCongWN,h,wnR.wav,4.0,57.0,378.0,59.0,h,0.55035270279,2020_Feb_26_0910,59.9527072484,duckFrog,2,True,White Noise,Frog1
385,frog,duckFront.png,frogFront.png,landoltCBottom.png,landoltCR.png,HinCongWN,b,wnL.wav,4.0,60.0,381.0,39.0,b,0.684042526671,2020_Feb_26_0910,59.9527072484,duckFrog,2,True,White Noise,Frog1
386,frog,duckFront.png,frogFront.png,landoltCBottom.png,landoltCR.png,HinCongWN,b,wnL.wav,4.0,79.0,400.0,23.0,b,0.383525972153,2020_Feb_26_0910,59.9527072484,duckFrog,2,True,White Noise,Frog1
387,frog,duckFront.png,frogFront.png,landoltCTop.png,landoltCR.png,HinCongWN,h,wnL.wav,5.0,4.0,405.0,79.0,h,0.433638212417,2020_Feb_26_0910,59.9527072484,duckFrog,2,True,White Noise,Frog1
388,frog,frogFront.png,duckFront.png,landoltCR.png,landoltCBottom.png,HinCongWN,b,wnR.wav,5.0,12.0,413.0,19.0,b,0.567286248624,2020_Feb_26_0910,59.9527072484,duckFrog,2,True,White Noise,Frog1
389,frog,duckFront.png,frogFront.png,landoltCTop.png,landoltCR.png,HinCongWN,h,wnL.wav,5.0,18.0,419.0,63.0,h,0.63374664048,2020_Feb_26_0910,59.9527072484,duckFrog,2,True,White Noise,Frog1
390,frog,duckFront.png,frogFront.png,landoltCBottom.png,landoltCR.png,HinCongWN,b,wnL.wav,5.0,24.0,425.0,71.0,b,0.433897002862,2020_Feb_26_0910,59.9527072484,duckFrog,2,True,White Noise,Frog1
391,frog,duckFront.png,frogFront.png,landoltCBottom.png,landoltCR.png,HinCongWN,b,wnL.wav,5.0,25.0,426.0,39.0,b,0.433789601157,2020_Feb_26_0910,59.9527072484,duckFrog,2,True,White Noise,Frog1
392,frog,frogFront.png,duckFront.png,landoltCL.png,landoltCTop.png,HinCongWN,h,wnR.wav,5.0,30.0,431.0,43.0,h,0.3838265503,2020_Feb_26_0910,59.9527072484,duckFrog,2,True,White Noise,Frog1
393,frog,frogFront.png,duckFront.png,landoltCR.png,landoltCBottom.png,HinCongWN,b,wnR.wav,5.0,31.0,432.0,35.0,b,0.383861006805,2020_Feb_26_0910,59.9527072484,duckFrog,2,True,White Noise,Frog1
394,frog,duckFront.png,frogFront.png,landoltCBottom.png,landoltCR.png,HinCongWN,b,wnL.wav,5.0,37.0,438.0,23.0,b,0.40067725387100006,2020_Feb_26_0910,59.9527072484,duckFrog,2,True,White Noise,Frog1
395,frog,duckFront.png,frogFront.png,landoltCTop.png,landoltCR.png,HinCongWN,h,wnL.wav,5.0,42.0,443.0,47.0,h,0.43335999436399997,2020_Feb_26_0910,59.9527072484,duckFrog,2,True,White Noise,Frog1
396,frog,duckFront.png,frogFront.png,landoltCTop.png,landoltCR.png,HinCongWN,h,wnL.wav,5.0,45.0,446.0,31.0,h,0.483567539908,2020_Feb_26_0910,59.9527072484,duckFrog,2,True,White Noise,Frog1
397,frog,frogFront.png,duckFront.png,landoltCR.png,landoltCBottom.png,HinCongWN,b,wnR.wav,5.0,47.0,448.0,51.0,b,0.517239988912,2020_Feb_26_0910,59.9527072484,duckFrog,2,True,White Noise,Frog1
398,frog,duckFront.png,frogFront.png,landoltCBottom.png,landoltCR.png,HinCongWN,b,wnL.wav,5.0,60.0,461.0,55.0,b,0.41720025395599997,2020_Feb_26_0910,59.9527072484,duckFrog,2,True,White Noise,Frog1
399,frog,frogFront.png,duckFront.png,landoltCL.png,landoltCTop.png,HinCongWN,h,wnR.wav,5.0,74.0,475.0,27.0,h,0.400753864626,2020_Feb_26_0910,59.9527072484,duckFrog,2,True,White Noise,Frog1
400,frog,frogFront.png,duckFront.png,landoltCL.png,landoltCTop.png,HinCongWN,h,wnR.wav,5.0,75.0,476.0,75.0,h,0.400658192812,2020_Feb_26_0910,59.9527072484,duckFrog,2,True,White Noise,Frog1
401,frog,duckFront.png,frogFront.png,landoltCBottom.png,landoltCR.png,HinCongWN,b,wnL.wav,6.0,6.0,487.0,71.0,b,0.46724321463299995,2020_Feb_26_0910,59.9527072484,duckFrog,2,True,White Noise,Frog1
402,frog,duckFront.png,frogFront.png,landoltCBottom.png,landoltCR.png,HinCongWN,b,wnL.wav,6.0,8.0,489.0,23.0,b,0.300559075331,2020_Feb_26_0910,59.9527072484,duckFrog,2,True,White Noise,Frog1
403,frog,frogFront.png,duckFront.png,landoltCR.png,landoltCBottom.png,HinCongWN,b,wnR.wav,6.0,11.0,492.0,19.0,b,0.367068586071,2020_Feb_26_0910,59.9527072484,duckFrog,2,True,White Noise,Frog1
404,frog,frogFront.png,duckFront.png,landoltCL.png,landoltCTop.png,HinCongWN,h,wnR.wav,6.0,15.0,496.0,59.0,h,0.500564866961,2020_Feb_26_0910,59.9527072484,duckFrog,2,True,White Noise,Frog1
405,frog,frogFront.png,duckFront.png,landoltCL.png,landoltCTop.png,HinCongWN,h,wnR.wav,6.0,21.0,502.0,43.0,h,0.35025197244199996,2020_Feb_26_0910,59.9527072484,duckFrog,2,True,White Noise,Frog1
406,frog,duckFront.png,frogFront.png,landoltCBottom.png,landoltCR.png,HinCongWN,b,wnL.wav,6.0,26.0,507.0,39.0,b,0.417189990301,2020_Feb_26_0910,59.9527072484,duckFrog,2,True,White Noise,Frog1
407,frog,frogFront.png,duckFront.png,landoltCL.png,landoltCTop.png,HinCongWN,h,wnR.wav,6.0,37.0,518.0,75.0,h,0.36712796858,2020_Feb_26_0910,59.9527072484,duckFrog,2,True,White Noise,Frog1
408,frog,frogFront.png,duckFront.png,landoltCR.png,landoltCBottom.png,HinCongWN,b,wnR.wav,6.0,43.0,524.0,67.0,b,0.400638398627,2020_Feb_26_0910,59.9527072484,duckFrog,2,True,White Noise,Frog1
409,frog,duckFront.png,frogFront.png,landoltCTop.png,landoltCR.png,HinCongWN,h,wnL.wav,6.0,44.0,525.0,47.0,h,0.533708005198,2020_Feb_26_0910,59.9527072484,duckFrog,2,True,White Noise,Frog1
410,frog,duckFront.png,frogFront.png,landoltCBottom.png,landoltCR.png,HinCongWN,b,wnL.wav,6.0,47.0,528.0,55.0,b,1.08414538305,2020_Feb_26_0910,59.9527072484,duckFrog,2,True,White Noise,Frog1
411,frog,duckFront.png,frogFront.png,landoltCTop.png,landoltCR.png,HinCongWN,h,wnL.wav,6.0,49.0,530.0,79.0,h,0.399985557597,2020_Feb_26_0910,59.9527072484,duckFrog,2,True,White Noise,Frog1
412,frog,duckFront.png,frogFront.png,landoltCTop.png,landoltCR.png,HinCongWN,h,wnL.wav,6.0,54.0,535.0,31.0,h,0.683611087079,2020_Feb_26_0910,59.9527072484,duckFrog,2,True,White Noise,Frog1
413,frog,frogFront.png,duckFront.png,landoltCL.png,landoltCTop.png,HinCongWN,h,wnR.wav,6.0,63.0,544.0,27.0,h,0.36671449035899994,2020_Feb_26_0910,59.9527072484,duckFrog,2,True,White Noise,Frog1
414,frog,duckFront.png,frogFront.png,landoltCTop.png,landoltCR.png,HinCongWN,h,wnL.wav,6.0,68.0,549.0,63.0,h,0.600516627834,2020_Feb_26_0910,59.9527072484,duckFrog,2,True,White Noise,Frog1
415,frog,frogFront.png,duckFront.png,landoltCR.png,landoltCBottom.png,HinCongWN,b,wnR.wav,6.0,73.0,554.0,51.0,b,0.467209124676,2020_Feb_26_0910,59.9527072484,duckFrog,2,True,White Noise,Frog1
416,frog,frogFront.png,duckFront.png,landoltCR.png,landoltCBottom.png,HinCongWN,b,wnR.wav,6.0,75.0,556.0,35.0,b,0.717191896416,2020_Feb_26_0910,59.9527072484,duckFrog,2,True,White Noise,Frog1
417,duck,frogFront.png,duckFront.png,landoltCTop.png,landoltCR.png,Lcong,h,quackR.wav,0.0,35.0,36.0,4.0,h,0.817329135985,2020_Feb_26_0910,59.9527072484,duckFrog,2,True,Animal,Frog2
418,duck,frogFront.png,duckFront.png,landoltCBottom.png,landoltCR.png,Lcong,b,quackR.wav,0.0,45.0,46.0,12.0,b,1.2012436603499999,2020_Feb_26_0910,59.9527072484,duckFrog,2,True,Animal,Frog2
419,duck,duckFront.png,frogFront.png,landoltCR.png,landoltCBottom.png,Lcong,b,quackL.wav,0.0,72.0,73.0,8.0,b,1.1677449601799998,2020_Feb_26_0910,59.9527072484,duckFrog,2,True,Animal,Frog2
420,duck,duckFront.png,frogFront.png,landoltCR.png,landoltCBottom.png,Lcong,b,quackL.wav,1.0,28.0,109.0,8.0,b,1.00051831402,2020_Feb_26_0910,59.9527072484,duckFrog,2,True,Animal,Frog2
421,duck,duckFront.png,frogFront.png,landoltCL.png,landoltCTop.png,Lcong,h,quackL.wav,1.0,46.0,127.0,0.0,b,1.0178898975,2020_Feb_26_0910,59.9527072484,duckFrog,2,False,Animal,Frog2
422,duck,frogFront.png,duckFront.png,landoltCTop.png,landoltCR.png,Lcong,h,quackR.wav,1.0,67.0,148.0,4.0,h,1.2589652927600001,2020_Feb_26_0910,59.9527072484,duckFrog,2,True,Animal,Frog2
423,duck,frogFront.png,duckFront.png,landoltCBottom.png,landoltCR.png,Lcong,b,quackR.wav,1.0,76.0,157.0,12.0,b,1.1671218104,2020_Feb_26_0910,59.9527072484,duckFrog,2,True,Animal,Frog2
424,duck,frogFront.png,duckFront.png,landoltCTop.png,landoltCR.png,Lcong,h,quackR.wav,2.0,19.0,180.0,4.0,h,1.06769679437,2020_Feb_26_0910,59.9527072484,duckFrog,2,True,Animal,Frog2
425,duck,duckFront.png,frogFront.png,landoltCL.png,landoltCTop.png,Lcong,h,quackL.wav,2.0,33.0,194.0,0.0,h,1.21759107884,2020_Feb_26_0910,59.9527072484,duckFrog,2,True,Animal,Frog2
426,duck,duckFront.png,frogFront.png,landoltCR.png,landoltCBottom.png,Lcong,b,quackL.wav,2.0,72.0,233.0,8.0,b,1.30119212221,2020_Feb_26_0910,59.9527072484,duckFrog,2,True,Animal,Frog2
427,duck,duckFront.png,frogFront.png,landoltCL.png,landoltCTop.png,Lcong,h,quackL.wav,3.0,14.0,255.0,0.0,h,1.15075936301,2020_Feb_26_0910,59.9527072484,duckFrog,2,True,Animal,Frog2
428,duck,frogFront.png,duckFront.png,landoltCTop.png,landoltCR.png,Lcong,h,quackR.wav,3.0,46.0,287.0,4.0,h,1.2676116794499999,2020_Feb_26_0910,59.9527072484,duckFrog,2,True,Animal,Frog2
429,duck,duckFront.png,frogFront.png,landoltCR.png,landoltCBottom.png,Lcong,b,quackL.wav,3.0,63.0,304.0,8.0,b,1.33438364622,2020_Feb_26_0910,59.9527072484,duckFrog,2,True,Animal,Frog2
430,duck,duckFront.png,frogFront.png,landoltCR.png,landoltCBottom.png,Lcong,b,quackL.wav,4.0,46.0,367.0,8.0,b,1.20103802092,2020_Feb_26_0910,59.9527072484,duckFrog,2,True,Animal,Frog2
431,duck,frogFront.png,duckFront.png,landoltCTop.png,landoltCR.png,Lcong,h,quackR.wav,4.0,49.0,370.0,4.0,h,1.21782457674,2020_Feb_26_0910,59.9527072484,duckFrog,2,True,Animal,Frog2
432,duck,frogFront.png,duckFront.png,landoltCBottom.png,landoltCR.png,Lcong,b,quackR.wav,4.0,55.0,376.0,12.0,b,1.0509285665,2020_Feb_26_0910,59.9527072484,duckFrog,2,True,Animal,Frog2
433,duck,duckFront.png,frogFront.png,landoltCL.png,landoltCTop.png,Lcong,h,quackL.wav,4.0,66.0,387.0,0.0,h,0.884172215141,2020_Feb_26_0910,59.9527072484,duckFrog,2,True,Animal,Frog2
434,duck,duckFront.png,frogFront.png,landoltCR.png,landoltCBottom.png,Lcong,b,quackL.wav,5.0,53.0,454.0,8.0,b,1.0172982717499999,2020_Feb_26_0910,59.9527072484,duckFrog,2,True,Animal,Frog2
435,duck,frogFront.png,duckFront.png,landoltCTop.png,landoltCR.png,Lcong,h,quackR.wav,5.0,59.0,460.0,4.0,h,1.0510260711200001,2020_Feb_26_0910,59.9527072484,duckFrog,2,True,Animal,Frog2
436,duck,frogFront.png,duckFront.png,landoltCBottom.png,landoltCR.png,Lcong,b,quackR.wav,5.0,65.0,466.0,12.0,b,0.9678333741320001,2020_Feb_26_0910,59.9527072484,duckFrog,2,True,Animal,Frog2
437,duck,duckFront.png,frogFront.png,landoltCL.png,landoltCTop.png,Lcong,h,quackL.wav,5.0,70.0,471.0,0.0,h,1.03439273687,2020_Feb_26_0910,59.9527072484,duckFrog,2,True,Animal,Frog2
438,duck,duckFront.png,frogFront.png,landoltCR.png,landoltCBottom.png,Lcong,b,quackL.wav,6.0,16.0,497.0,8.0,b,0.9676750207729999,2020_Feb_26_0910,59.9527072484,duckFrog,2,True,Animal,Frog2
439,duck,frogFront.png,duckFront.png,landoltCTop.png,landoltCR.png,Lcong,h,quackR.wav,6.0,20.0,501.0,4.0,h,0.8674824308399999,2020_Feb_26_0910,59.9527072484,duckFrog,2,True,Animal,Frog2
440,duck,duckFront.png,frogFront.png,landoltCL.png,landoltCTop.png,Lcong,h,quackL.wav,6.0,48.0,529.0,0.0,h,1.0842403217399998,2020_Feb_26_0910,59.9527072484,duckFrog,2,True,Animal,Frog2
441,duck,frogFront.png,duckFront.png,landoltCBottom.png,landoltCR.png,Lcong,b,quackR.wav,6.0,74.0,555.0,12.0,b,1.06745816465,2020_Feb_26_0910,59.9527072484,duckFrog,2,True,Animal,Frog2
442,duck,frogFront.png,duckFront.png,landoltCTop.png,landoltCL.png,LcongWN,h,wnR.wav,0.0,14.0,15.0,5.0,h,1.3013288486,2020_Feb_26_0910,59.9527072484,duckFrog,2,True,White Noise,Frog2
443,duck,duckFront.png,frogFront.png,landoltCR.png,landoltCTop.png,LcongWN,h,wnL.wav,0.0,24.0,25.0,1.0,b,0.817705225229,2020_Feb_26_0910,59.9527072484,duckFrog,2,False,White Noise,Frog2
444,duck,duckFront.png,frogFront.png,landoltCL.png,landoltCBottom.png,LcongWN,b,wnL.wav,0.0,51.0,52.0,9.0,b,1.4180891588,2020_Feb_26_0910,59.9527072484,duckFrog,2,True,White Noise,Frog2
445,duck,frogFront.png,duckFront.png,landoltCBottom.png,landoltCL.png,LcongWN,b,wnR.wav,0.0,79.0,80.0,13.0,b,1.65142136803,2020_Feb_26_0910,59.9527072484,duckFrog,2,True,White Noise,Frog2
446,duck,duckFront.png,frogFront.png,landoltCR.png,landoltCTop.png,LcongWN,h,wnL.wav,1.0,17.0,98.0,1.0,h,1.2346965407200001,2020_Feb_26_0910,59.9527072484,duckFrog,2,True,White Noise,Frog2
447,duck,frogFront.png,duckFront.png,landoltCBottom.png,landoltCL.png,LcongWN,b,wnR.wav,1.0,24.0,105.0,13.0,b,1.25117628687,2020_Feb_26_0910,59.9527072484,duckFrog,2,True,White Noise,Frog2
448,duck,frogFront.png,duckFront.png,landoltCTop.png,landoltCL.png,LcongWN,h,wnR.wav,1.0,37.0,118.0,5.0,h,1.25118141869,2020_Feb_26_0910,59.9527072484,duckFrog,2,True,White Noise,Frog2
449,duck,duckFront.png,frogFront.png,landoltCL.png,landoltCBottom.png,LcongWN,b,wnL.wav,1.0,73.0,154.0,9.0,b,1.00073275085,2020_Feb_26_0910,59.9527072484,duckFrog,2,True,White Noise,Frog2
450,duck,duckFront.png,frogFront.png,landoltCL.png,landoltCBottom.png,LcongWN,b,wnL.wav,2.0,29.0,190.0,9.0,h,1.2013444640200002,2020_Feb_26_0910,59.9527072484,duckFrog,2,False,White Noise,Frog2
451,duck,frogFront.png,duckFront.png,landoltCBottom.png,landoltCL.png,LcongWN,b,wnR.wav,2.0,54.0,215.0,13.0,b,1.4681757399700002,2020_Feb_26_0910,59.9527072484,duckFrog,2,True,White Noise,Frog2
452,duck,duckFront.png,frogFront.png,landoltCR.png,landoltCTop.png,LcongWN,h,wnL.wav,2.0,62.0,223.0,1.0,h,1.35108919253,2020_Feb_26_0910,59.9527072484,duckFrog,2,True,White Noise,Frog2
453,duck,frogFront.png,duckFront.png,landoltCTop.png,landoltCL.png,LcongWN,h,wnR.wav,2.0,75.0,236.0,5.0,h,1.33450094498,2020_Feb_26_0910,59.9527072484,duckFrog,2,True,White Noise,Frog2
454,duck,frogFront.png,duckFront.png,landoltCTop.png,landoltCL.png,LcongWN,h,wnR.wav,3.0,15.0,256.0,5.0,h,1.1176429835500001,2020_Feb_26_0910,59.9527072484,duckFrog,2,True,White Noise,Frog2
455,duck,duckFront.png,frogFront.png,landoltCL.png,landoltCBottom.png,LcongWN,b,wnL.wav,3.0,33.0,274.0,9.0,b,0.7508148599879999,2020_Feb_26_0910,59.9527072484,duckFrog,2,True,White Noise,Frog2
456,duck,duckFront.png,frogFront.png,landoltCR.png,landoltCTop.png,LcongWN,h,wnL.wav,3.0,41.0,282.0,1.0,h,1.0841563798,2020_Feb_26_0910,59.9527072484,duckFrog,2,True,White Noise,Frog2
457,duck,frogFront.png,duckFront.png,landoltCBottom.png,landoltCL.png,LcongWN,b,wnR.wav,3.0,48.0,289.0,13.0,b,1.15110172884,2020_Feb_26_0910,59.9527072484,duckFrog,2,True,White Noise,Frog2
458,duck,frogFront.png,duckFront.png,landoltCTop.png,landoltCL.png,LcongWN,h,wnR.wav,4.0,9.0,330.0,5.0,h,1.06770779114,2020_Feb_26_0910,59.9527072484,duckFrog,2,True,White Noise,Frog2
459,duck,frogFront.png,duckFront.png,landoltCBottom.png,landoltCL.png,LcongWN,b,wnR.wav,4.0,30.0,351.0,13.0,b,0.8673530356170001,2020_Feb_26_0910,59.9527072484,duckFrog,2,True,White Noise,Frog2
460,duck,duckFront.png,frogFront.png,landoltCR.png,landoltCTop.png,LcongWN,h,wnL.wav,4.0,71.0,392.0,1.0,h,0.883991135139,2020_Feb_26_0910,59.9527072484,duckFrog,2,True,White Noise,Frog2
461,duck,duckFront.png,frogFront.png,landoltCL.png,landoltCBottom.png,LcongWN,b,wnL.wav,4.0,74.0,395.0,9.0,b,0.884140691109,2020_Feb_26_0910,59.9527072484,duckFrog,2,True,White Noise,Frog2
462,duck,duckFront.png,frogFront.png,landoltCR.png,landoltCTop.png,LcongWN,h,wnL.wav,5.0,7.0,408.0,1.0,h,0.950481951382,2020_Feb_26_0910,59.9527072484,duckFrog,2,True,White Noise,Frog2
463,duck,duckFront.png,frogFront.png,landoltCL.png,landoltCBottom.png,LcongWN,b,wnL.wav,5.0,43.0,444.0,9.0,b,0.950905326681,2020_Feb_26_0910,59.9527072484,duckFrog,2,True,White Noise,Frog2
464,duck,frogFront.png,duckFront.png,landoltCTop.png,landoltCL.png,LcongWN,h,wnR.wav,5.0,66.0,467.0,5.0,h,1.28479301896,2020_Feb_26_0910,59.9527072484,duckFrog,2,True,White Noise,Frog2
465,duck,frogFront.png,duckFront.png,landoltCBottom.png,landoltCL.png,LcongWN,b,wnR.wav,5.0,76.0,477.0,13.0,b,1.03425711014,2020_Feb_26_0910,59.9527072484,duckFrog,2,True,White Noise,Frog2
466,duck,duckFront.png,frogFront.png,landoltCR.png,landoltCTop.png,LcongWN,h,wnL.wav,6.0,38.0,519.0,1.0,h,0.46728243641,2020_Feb_26_0910,59.9527072484,duckFrog,2,True,White Noise,Frog2
467,duck,frogFront.png,duckFront.png,landoltCTop.png,landoltCL.png,LcongWN,h,wnR.wav,6.0,45.0,526.0,5.0,h,0.8344012410230001,2020_Feb_26_0910,59.9527072484,duckFrog,2,True,White Noise,Frog2
468,duck,frogFront.png,duckFront.png,landoltCBottom.png,landoltCL.png,LcongWN,b,wnR.wav,6.0,69.0,550.0,13.0,b,1.13442843968,2020_Feb_26_0910,59.9527072484,duckFrog,2,True,White Noise,Frog2
469,duck,duckFront.png,frogFront.png,landoltCL.png,landoltCBottom.png,LcongWN,b,wnL.wav,6.0,72.0,553.0,9.0,b,0.9509379504019999,2020_Feb_26_0910,59.9527072484,duckFrog,2,True,White Noise,Frog2
470,duck,frogFront.png,duckFront.png,landoltCTop.png,landoltCR.png,LinCong,h,ribbitL.wav,0.0,30.0,31.0,6.0,h,1.15121609515,2020_Feb_26_0910,59.9527072484,duckFrog,2,True,Animal,Duck2
471,duck,duckFront.png,frogFront.png,landoltCR.png,landoltCBottom.png,LinCong,b,ribbitR.wav,0.0,49.0,50.0,10.0,b,1.20112672813,2020_Feb_26_0910,59.9527072484,duckFrog,2,True,Animal,Duck2
472,duck,frogFront.png,duckFront.png,landoltCBottom.png,landoltCR.png,LinCong,b,ribbitL.wav,0.0,77.0,78.0,14.0,b,1.4014352972600002,2020_Feb_26_0910,59.9527072484,duckFrog,2,True,Animal,Duck2
473,duck,frogFront.png,duckFront.png,landoltCBottom.png,landoltCR.png,LinCong,b,ribbitL.wav,1.0,26.0,107.0,14.0,b,1.01786423838,2020_Feb_26_0910,59.9527072484,duckFrog,2,True,Animal,Duck2
474,duck,duckFront.png,frogFront.png,landoltCR.png,landoltCBottom.png,LinCong,b,ribbitR.wav,1.0,32.0,113.0,10.0,b,1.18413893161,2020_Feb_26_0910,59.9527072484,duckFrog,2,True,Animal,Duck2
475,duck,frogFront.png,duckFront.png,landoltCTop.png,landoltCR.png,LinCong,h,ribbitL.wav,1.0,39.0,120.0,6.0,h,1.30120861735,2020_Feb_26_0910,59.9527072484,duckFrog,2,True,Animal,Duck2
476,duck,frogFront.png,duckFront.png,landoltCBottom.png,landoltCR.png,LinCong,b,ribbitL.wav,2.0,31.0,192.0,14.0,b,1.08415564669,2020_Feb_26_0910,59.9527072484,duckFrog,2,True,Animal,Duck2
477,duck,frogFront.png,duckFront.png,landoltCTop.png,landoltCR.png,LinCong,h,ribbitL.wav,2.0,32.0,193.0,6.0,h,1.16797699184,2020_Feb_26_0910,59.9527072484,duckFrog,2,True,Animal,Duck2
478,duck,duckFront.png,frogFront.png,landoltCL.png,landoltCTop.png,LinCong,h,ribbitR.wav,2.0,43.0,204.0,2.0,h,1.25137092956,2020_Feb_26_0910,59.9527072484,duckFrog,2,True,Animal,Duck2
479,duck,duckFront.png,frogFront.png,landoltCR.png,landoltCBottom.png,LinCong,b,ribbitR.wav,2.0,78.0,239.0,10.0,b,1.3515319954499998,2020_Feb_26_0910,59.9527072484,duckFrog,2,True,Animal,Duck2
480,duck,frogFront.png,duckFront.png,landoltCTop.png,landoltCR.png,LinCong,h,ribbitL.wav,3.0,20.0,261.0,6.0,h,0.783953232967,2020_Feb_26_0910,59.9527072484,duckFrog,2,True,Animal,Duck2
481,duck,duckFront.png,frogFront.png,landoltCR.png,landoltCBottom.png,LinCong,b,ribbitR.wav,3.0,27.0,268.0,10.0,b,1.13446876114,2020_Feb_26_0910,59.9527072484,duckFrog,2,True,Animal,Duck2
482,duck,frogFront.png,duckFront.png,landoltCBottom.png,landoltCR.png,LinCong,b,ribbitL.wav,3.0,43.0,284.0,14.0,b,1.11781636583,2020_Feb_26_0910,59.9527072484,duckFrog,2,True,Animal,Duck2
483,duck,duckFront.png,frogFront.png,landoltCL.png,landoltCTop.png,LinCong,h,ribbitR.wav,3.0,58.0,299.0,2.0,h,1.2508768084200002,2020_Feb_26_0910,59.9527072484,duckFrog,2,True,Animal,Duck2
484,duck,duckFront.png,frogFront.png,landoltCR.png,landoltCBottom.png,LinCong,b,ribbitR.wav,4.0,4.0,325.0,10.0,b,1.18452821695,2020_Feb_26_0910,59.9527072484,duckFrog,2,True,Animal,Duck2
485,duck,frogFront.png,duckFront.png,landoltCTop.png,landoltCR.png,LinCong,h,ribbitL.wav,4.0,35.0,356.0,6.0,h,1.06774041486,2020_Feb_26_0910,59.9527072484,duckFrog,2,True,Animal,Duck2
486,duck,duckFront.png,frogFront.png,landoltCL.png,landoltCTop.png,LinCong,h,ribbitR.wav,4.0,36.0,357.0,2.0,h,1.03410058958,2020_Feb_26_0910,59.9527072484,duckFrog,2,True,Animal,Duck2
487,duck,frogFront.png,duckFront.png,landoltCBottom.png,landoltCR.png,LinCong,b,ribbitL.wav,4.0,50.0,371.0,14.0,b,1.26810030219,2020_Feb_26_0910,59.9527072484,duckFrog,2,True,Animal,Duck2
488,duck,duckFront.png,frogFront.png,landoltCR.png,landoltCBottom.png,LinCong,b,ribbitR.wav,5.0,20.0,421.0,10.0,b,1.4013205643900002,2020_Feb_26_0910,59.9527072484,duckFrog,2,True,Animal,Duck2
489,duck,duckFront.png,frogFront.png,landoltCL.png,landoltCTop.png,LinCong,h,ribbitR.wav,5.0,44.0,445.0,2.0,h,0.917562780509,2020_Feb_26_0910,59.9527072484,duckFrog,2,True,Animal,Duck2
490,duck,frogFront.png,duckFront.png,landoltCTop.png,landoltCR.png,LinCong,h,ribbitL.wav,5.0,78.0,479.0,6.0,h,0.9508774682179999,2020_Feb_26_0910,59.9527072484,duckFrog,2,True,Animal,Duck2
491,duck,frogFront.png,duckFront.png,landoltCTop.png,landoltCR.png,LinCong,h,ribbitL.wav,6.0,18.0,499.0,6.0,h,1.0174229017,2020_Feb_26_0910,59.9527072484,duckFrog,2,True,Animal,Duck2
492,duck,duckFront.png,frogFront.png,landoltCR.png,landoltCBottom.png,LinCong,b,ribbitR.wav,6.0,46.0,527.0,10.0,b,1.0509384636,2020_Feb_26_0910,59.9527072484,duckFrog,2,True,Animal,Duck2
493,duck,frogFront.png,duckFront.png,landoltCBottom.png,landoltCR.png,LinCong,b,ribbitL.wav,6.0,52.0,533.0,14.0,b,1.0343084283700001,2020_Feb_26_0910,59.9527072484,duckFrog,2,True,Animal,Duck2
494,duck,duckFront.png,frogFront.png,landoltCL.png,landoltCTop.png,LinCong,h,ribbitR.wav,6.0,70.0,551.0,2.0,h,1.28433152156,2020_Feb_26_0910,59.9527072484,duckFrog,2,True,Animal,Duck2
495,duck,frogFront.png,duckFront.png,landoltCBottom.png,landoltCL.png,LinCongWN,b,wnL.wav,0.0,29.0,30.0,15.0,b,1.4514320715399998,2020_Feb_26_0910,59.9527072484,duckFrog,2,True,White Noise,Duck2
496,duck,duckFront.png,frogFront.png,landoltCL.png,landoltCBottom.png,LinCongWN,b,wnR.wav,0.0,59.0,60.0,11.0,b,1.51807390996,2020_Feb_26_0910,59.9527072484,duckFrog,2,True,White Noise,Duck2
497,duck,frogFront.png,duckFront.png,landoltCTop.png,landoltCL.png,LinCongWN,h,wnL.wav,0.0,63.0,64.0,7.0,h,0.5670963712179999,2020_Feb_26_0910,59.9527072484,duckFrog,2,True,White Noise,Duck2
498,duck,duckFront.png,frogFront.png,landoltCR.png,landoltCTop.png,LinCongWN,h,wnR.wav,0.0,65.0,66.0,3.0,h,1.18444904027,2020_Feb_26_0910,59.9527072484,duckFrog,2,True,White Noise,Duck2
499,duck,duckFront.png,frogFront.png,landoltCL.png,landoltCBottom.png,LinCongWN,b,wnR.wav,1.0,11.0,92.0,11.0,b,1.26761461192,2020_Feb_26_0910,59.9527072484,duckFrog,2,True,White Noise,Duck2
500,duck,frogFront.png,duckFront.png,landoltCBottom.png,landoltCL.png,LinCongWN,b,wnL.wav,1.0,31.0,112.0,15.0,b,1.2845364278799998,2020_Feb_26_0910,59.9527072484,duckFrog,2,True,White Noise,Duck2
501,duck,duckFront.png,frogFront.png,landoltCR.png,landoltCTop.png,LinCongWN,h,wnR.wav,1.0,49.0,130.0,3.0,h,1.31785294837,2020_Feb_26_0910,59.9527072484,duckFrog,2,True,White Noise,Duck2
502,duck,frogFront.png,duckFront.png,landoltCTop.png,landoltCL.png,LinCongWN,h,wnL.wav,1.0,66.0,147.0,7.0,h,0.5339363712699999,2020_Feb_26_0910,59.9527072484,duckFrog,2,True,White Noise,Duck2
503,duck,duckFront.png,frogFront.png,landoltCR.png,landoltCTop.png,LinCongWN,h,wnR.wav,2.0,27.0,188.0,3.0,h,1.5511972540299999,2020_Feb_26_0910,59.9527072484,duckFrog,2,True,White Noise,Duck2
504,duck,duckFront.png,frogFront.png,landoltCL.png,landoltCBottom.png,LinCongWN,b,wnR.wav,2.0,30.0,191.0,11.0,b,0.734152934165,2020_Feb_26_0910,59.9527072484,duckFrog,2,True,White Noise,Duck2
505,duck,frogFront.png,duckFront.png,landoltCTop.png,landoltCL.png,LinCongWN,h,wnL.wav,2.0,68.0,229.0,7.0,h,1.21794444142,2020_Feb_26_0910,59.9527072484,duckFrog,2,True,White Noise,Duck2
506,duck,frogFront.png,duckFront.png,landoltCBottom.png,landoltCL.png,LinCongWN,b,wnL.wav,2.0,69.0,230.0,15.0,b,1.25126352785,2020_Feb_26_0910,59.9527072484,duckFrog,2,True,White Noise,Duck2
507,duck,frogFront.png,duckFront.png,landoltCBottom.png,landoltCL.png,LinCongWN,b,wnL.wav,3.0,5.0,246.0,15.0,b,1.25118105214,2020_Feb_26_0910,59.9527072484,duckFrog,2,True,White Noise,Duck2
508,duck,duckFront.png,frogFront.png,landoltCL.png,landoltCBottom.png,LinCongWN,b,wnR.wav,3.0,22.0,263.0,11.0,b,0.91733551411,2020_Feb_26_0910,59.9527072484,duckFrog,2,True,White Noise,Duck2
509,duck,duckFront.png,frogFront.png,landoltCR.png,landoltCTop.png,LinCongWN,h,wnR.wav,3.0,34.0,275.0,3.0,h,0.984335480389,2020_Feb_26_0910,59.9527072484,duckFrog,2,True,White Noise,Duck2
510,duck,frogFront.png,duckFront.png,landoltCTop.png,landoltCL.png,LinCongWN,h,wnL.wav,3.0,76.0,317.0,7.0,h,1.1676525873899999,2020_Feb_26_0910,59.9527072484,duckFrog,2,True,White Noise,Duck2
511,duck,frogFront.png,duckFront.png,landoltCTop.png,landoltCL.png,LinCongWN,h,wnL.wav,4.0,31.0,352.0,7.0,h,0.917612999052,2020_Feb_26_0910,59.9527072484,duckFrog,2,True,White Noise,Duck2
512,duck,frogFront.png,duckFront.png,landoltCBottom.png,landoltCL.png,LinCongWN,b,wnL.wav,4.0,63.0,384.0,15.0,b,1.11734277198,2020_Feb_26_0910,59.9527072484,duckFrog,2,True,White Noise,Duck2
513,duck,duckFront.png,frogFront.png,landoltCL.png,landoltCBottom.png,LinCongWN,b,wnR.wav,4.0,69.0,390.0,11.0,b,1.00097138056,2020_Feb_26_0910,59.9527072484,duckFrog,2,True,White Noise,Duck2
514,duck,frogFront.png,duckFront.png,landoltCTop.png,landoltCL.png,LinCongWN,h,wnL.wav,5.0,5.0,406.0,7.0,h,0.9843523420999999,2020_Feb_26_0910,59.9527072484,duckFrog,2,True,White Noise,Duck2
515,duck,frogFront.png,duckFront.png,landoltCBottom.png,landoltCL.png,LinCongWN,b,wnL.wav,5.0,26.0,427.0,15.0,b,1.1336986213,2020_Feb_26_0910,59.9527072484,duckFrog,2,True,White Noise,Duck2
516,duck,duckFront.png,frogFront.png,landoltCL.png,landoltCBottom.png,LinCongWN,b,wnR.wav,5.0,40.0,441.0,11.0,b,1.1559454355299998,2020_Feb_26_0910,59.9527072484,duckFrog,2,True,White Noise,Duck2
517,duck,duckFront.png,frogFront.png,landoltCR.png,landoltCTop.png,LinCongWN,h,wnR.wav,5.0,72.0,473.0,3.0,h,0.500291047603,2020_Feb_26_0910,59.9527072484,duckFrog,2,True,White Noise,Duck2
518,duck,frogFront.png,duckFront.png,landoltCTop.png,landoltCL.png,LinCongWN,h,wnL.wav,6.0,40.0,521.0,7.0,h,1.0674673286299998,2020_Feb_26_0910,59.9527072484,duckFrog,2,True,White Noise,Duck2
519,duck,frogFront.png,duckFront.png,landoltCBottom.png,landoltCL.png,LinCongWN,b,wnL.wav,6.0,51.0,532.0,15.0,b,0.917358607316,2020_Feb_26_0910,59.9527072484,duckFrog,2,True,White Noise,Duck2
520,duck,duckFront.png,frogFront.png,landoltCL.png,landoltCBottom.png,LinCongWN,b,wnR.wav,6.0,53.0,534.0,11.0,b,1.15082277766,2020_Feb_26_0910,59.9527072484,duckFrog,2,True,White Noise,Duck2
521,duck,duckFront.png,frogFront.png,landoltCR.png,landoltCTop.png,LinCongWN,h,wnR.wav,6.0,55.0,536.0,3.0,h,1.11756857214,2020_Feb_26_0910,59.9527072484,duckFrog,2,True,White Noise,Duck2
522,duck,frogFront.png,duckFront.png,landoltCBottom.png,landoltCR.png,Hcong,b,quackR.wav,0.0,1.0,2.0,12.0,b,0.7502807839769999,2020_Feb_26_1011,59.958636725699996,duckFrog,3,True,Animal,Duck1
523,duck,duckFront.png,frogFront.png,landoltCL.png,landoltCTop.png,Hcong,h,quackL.wav,0.0,7.0,8.0,32.0,h,0.833938643933,2020_Feb_26_1011,59.958636725699996,duckFrog,3,True,Animal,Duck1
524,duck,frogFront.png,duckFront.png,landoltCBottom.png,landoltCR.png,Hcong,b,quackR.wav,0.0,13.0,14.0,60.0,b,1.31743360523,2020_Feb_26_1011,59.958636725699996,duckFrog,3,True,Animal,Duck1
525,duck,frogFront.png,duckFront.png,landoltCTop.png,landoltCR.png,Hcong,h,quackR.wav,0.0,18.0,19.0,52.0,h,1.4010584749000001,2020_Feb_26_1011,59.958636725699996,duckFrog,3,True,Animal,Duck1
526,duck,duckFront.png,frogFront.png,landoltCL.png,landoltCTop.png,Hcong,h,quackL.wav,0.0,21.0,22.0,0.0,h,0.684072217933,2020_Feb_26_1011,59.958636725699996,duckFrog,3,True,Animal,Duck1
527,duck,duckFront.png,frogFront.png,landoltCL.png,landoltCTop.png,Hcong,h,quackL.wav,0.0,22.0,23.0,64.0,h,0.717392770588,2020_Feb_26_1011,59.958636725699996,duckFrog,3,True,Animal,Duck1
528,duck,duckFront.png,frogFront.png,landoltCL.png,landoltCTop.png,Hcong,h,quackL.wav,0.0,25.0,26.0,48.0,h,0.650448521221,2020_Feb_26_1011,59.958636725699996,duckFrog,3,True,Animal,Duck1
529,duck,duckFront.png,frogFront.png,landoltCR.png,landoltCBottom.png,Hcong,b,quackL.wav,0.0,30.0,31.0,56.0,b,0.833709178187,2020_Feb_26_1011,59.958636725699996,duckFrog,3,True,Animal,Duck1
