,trial,participant,total_fixations,latency,fixation0,fixation1,fix_dur_1,fixation2,fix_dur_2,fixation3,fix_dur_3,fixation4,first_fixation,first_fix_dwell,targetAnim,left_anim,right_anim,right_landolt,left_landolt,condition,corrAns,audioPos,repetition,trial_in_rep,trial_idx,key_pressed,reaction_time,date,frameRate,expName,corrCheck,sound_type,sound_loc
0,1,4,7,32,.,.,1256.0,.,352.0,.,428.0,.,.,1256.0,,,,,,,,,,,,,,,,,,,
1,2,4,10,1632,fixationIA,targetIA,136.0,targetIA,204.0,targetIA,540.0,targetIA,targetIA,136.0,,,,,,,,,,,,,,,,,,,
2,3,4,4,1148,fixationIA,targetIA,180.0,targetIA,280.0,targetIA,428.0,,targetIA,180.0,frog,frogFront.png,duckFront.png,landoltCL.png,landoltCTop.png,HcongWN,h,wnL.wav,0.0,2.0,41.0,h,1.5682755905599999,2020_Feb_26_1123,59.966808153900004,duckFrog,True,White Noise,Duck1
3,4,4,4,1332,fixationIA,distIA,576.0,targetIA,132.0,targetIA,1228.0,,distIA,576.0,,,,,,,,,,,,,,,,,,,
4,5,4,5,1276,fixationIA,targetIA,652.0,targetIA,140.0,targetIA,344.0,distIA,targetIA,652.0,frog,duckFront.png,frogFront.png,landoltCBottom.png,landoltCR.png,HcongWN,b,wnR.wav,0.0,4.0,37.0,b,2.2021398964,2020_Feb_26_1123,59.966808153900004,duckFrog,True,White Noise,Duck1
5,6,4,5,996,fixationIA,distIA,596.0,targetIA,100.0,targetIA,168.0,targetIA,distIA,596.0,frog,duckFront.png,frogFront.png,landoltCTop.png,landoltCR.png,HinCongWN,h,wnL.wav,0.0,5.0,63.0,h,2.13522570486,2020_Feb_26_1123,59.966808153900004,duckFrog,True,White Noise,Frog1
6,7,4,6,1196,fixationIA,distIA,220.0,distIA,268.0,targetIA,164.0,targetIA,distIA,220.0,duck,duckFront.png,frogFront.png,landoltCR.png,landoltCBottom.png,LinCong,b,ribbitR.wav,0.0,6.0,10.0,b,1.8680546289700002,2020_Feb_26_1123,59.966808153900004,duckFrog,True,Animal,Duck2
7,8,4,4,992,fixationIA,distIA,1024.0,targetIA,168.0,targetIA,476.0,,distIA,1024.0,frog,duckFront.png,frogFront.png,landoltCBottom.png,landoltCR.png,HinCongWN,b,wnL.wav,0.0,7.0,55.0,b,2.21838211252,2020_Feb_26_1123,59.966808153900004,duckFrog,True,White Noise,Frog1
8,9,4,5,428,fixationIA,fixationIA,584.0,distIA,680.0,targetIA,176.0,targetIA,distIA,680.0,frog,frogFront.png,duckFront.png,landoltCL.png,landoltCBottom.png,HinCong,b,quackR.wav,0.0,8.0,66.0,b,1.9182614413900003,2020_Feb_26_1123,59.966808153900004,duckFrog,True,Animal,Frog1
9,10,4,6,1008,fixationIA,distIA,200.0,distIA,300.0,targetIA,172.0,targetIA,distIA,200.0,frog,duckFront.png,frogFront.png,landoltCTop.png,landoltCL.png,HinCong,h,quackL.wav,0.0,9.0,46.0,h,1.65125348415,2020_Feb_26_1123,59.966808153900004,duckFrog,True,Animal,Frog1
10,11,4,5,1288,fixationIA,distIA,248.0,distIA,104.0,targetIA,164.0,targetIA,distIA,248.0,frog,duckFront.png,frogFront.png,landoltCBottom.png,landoltCR.png,HinCongWN,b,wnL.wav,0.0,10.0,23.0,b,1.7349183087200002,2020_Feb_26_1123,59.966808153900004,duckFrog,True,White Noise,Frog1
11,12,4,6,972,fixationIA,targetIA,176.0,targetIA,456.0,distIA,116.0,distIA,targetIA,176.0,duck,duckFront.png,frogFront.png,landoltCR.png,landoltCTop.png,LcongWN,h,wnL.wav,0.0,11.0,1.0,h,2.4351850901599996,2020_Feb_26_1123,59.966808153900004,duckFrog,True,White Noise,Frog2
12,13,4,6,788,fixationIA,targetIA,200.0,targetIA,960.0,distIA,112.0,distIA,targetIA,200.0,,,,,,,,,,,,,,,,,,,
13,14,4,4,1056,fixationIA,targetIA,476.0,distIA,176.0,distIA,240.0,,targetIA,476.0,frog,frogFront.png,duckFront.png,landoltCR.png,landoltCBottom.png,HinCongWN,b,wnR.wav,0.0,13.0,67.0,b,1.50137129611,2020_Feb_26_1123,59.966808153900004,duckFrog,True,White Noise,Frog1
14,15,4,5,1252,fixationIA,distIA,224.0,distIA,92.0,targetIA,176.0,targetIA,distIA,224.0,frog,duckFront.png,frogFront.png,landoltCBottom.png,landoltCL.png,HinCong,b,quackL.wav,0.0,14.0,22.0,b,1.7179997918,2020_Feb_26_1123,59.966808153900004,duckFrog,True,Animal,Frog1
15,16,4,3,956,fixationIA,targetIA,152.0,targetIA,580.0,,,,targetIA,152.0,frog,frogFront.png,duckFront.png,landoltCR.png,landoltCBottom.png,HcongWN,b,wnL.wav,0.0,15.0,49.0,b,1.15107606973,2020_Feb_26_1123,59.966808153900004,duckFrog,True,White Noise,Duck1
16,17,4,10,252,fixationIA,targetIA,152.0,targetIA,256.0,fixationIA,348.0,distIA,targetIA,152.0,,,,,,,,,,,,,,,,,,,
17,18,4,3,1072,fixationIA,targetIA,244.0,targetIA,492.0,,,,targetIA,244.0,frog,frogFront.png,duckFront.png,landoltCR.png,landoltCTop.png,Hcong,h,ribbitL.wav,0.0,17.0,56.0,h,1.18445600489,2020_Feb_26_1123,59.966808153900004,duckFrog,True,Animal,Duck1
18,19,4,5,960,fixationIA,distIA,392.0,targetIA,160.0,targetIA,184.0,targetIA,distIA,392.0,duck,duckFront.png,frogFront.png,landoltCL.png,landoltCBottom.png,LinCongWN,b,wnR.wav,0.0,18.0,11.0,b,1.7683294013799997,2020_Feb_26_1123,59.966808153900004,duckFrog,True,White Noise,Duck2
19,20,4,6,1164,fixationIA,targetIA,344.0,targetIA,228.0,distIA,252.0,targetIA,targetIA,344.0,frog,frogFront.png,duckFront.png,landoltCL.png,landoltCTop.png,HinCongWN,h,wnR.wav,0.0,19.0,27.0,h,1.93508538618,2020_Feb_26_1123,59.966808153900004,duckFrog,True,White Noise,Frog1
20,21,4,5,1436,fixationIA,targetIA,160.0,targetIA,152.0,distIA,160.0,distIA,targetIA,160.0,frog,duckFront.png,frogFront.png,landoltCTop.png,landoltCL.png,Hcong,h,ribbitR.wav,0.0,20.0,76.0,h,1.5676843313799997,2020_Feb_26_1123,59.966808153900004,duckFrog,True,Animal,Duck1
21,22,4,5,1084,fixationIA,distIA,196.0,distIA,184.0,targetIA,172.0,targetIA,distIA,196.0,duck,duckFront.png,frogFront.png,landoltCL.png,landoltCTop.png,LinCong,h,ribbitR.wav,0.0,21.0,2.0,h,1.6845568085299998,2020_Feb_26_1123,59.966808153900004,duckFrog,True,Animal,Duck2
22,23,4,3,1292,fixationIA,targetIA,212.0,targetIA,1032.0,,,,targetIA,212.0,frog,frogFront.png,duckFront.png,landoltCR.png,landoltCTop.png,HinCong,h,quackR.wav,0.0,22.0,58.0,h,2.0686377505599998,2020_Feb_26_1123,59.966808153900004,duckFrog,True,Animal,Frog1
23,24,4,6,1048,fixationIA,distIA,232.0,distIA,136.0,targetIA,172.0,targetIA,distIA,232.0,frog,duckFront.png,frogFront.png,landoltCTop.png,landoltCL.png,HinCong,h,quackL.wav,0.0,23.0,78.0,h,1.85116726955,2020_Feb_26_1123,59.966808153900004,duckFrog,True,Animal,Frog1
24,25,4,3,900,fixationIA,targetIA,152.0,targetIA,520.0,,,,targetIA,152.0,frog,frogFront.png,duckFront.png,landoltCL.png,landoltCBottom.png,HinCong,b,quackR.wav,0.0,24.0,18.0,b,1.03399648689,2020_Feb_26_1123,59.966808153900004,duckFrog,True,Animal,Frog1
25,26,4,6,948,fixationIA,distIA,188.0,distIA,152.0,distIA,76.0,targetIA,distIA,188.0,duck,frogFront.png,duckFront.png,landoltCBottom.png,landoltCR.png,Lcong,b,quackR.wav,0.0,25.0,12.0,b,1.4011262882700002,2020_Feb_26_1123,59.966808153900004,duckFrog,True,Animal,Frog2
26,27,4,2,1156,fixationIA,targetIA,632.0,,,,,,targetIA,632.0,frog,frogFront.png,duckFront.png,landoltCL.png,landoltCBottom.png,Hcong,b,ribbitL.wav,0.0,26.0,48.0,b,1.43436986361,2020_Feb_26_1123,59.966808153900004,duckFrog,True,Animal,Duck1
27,28,4,2,1136,fixationIA,targetIA,592.0,,,,,,targetIA,592.0,frog,frogFront.png,duckFront.png,landoltCL.png,landoltCBottom.png,Hcong,b,ribbitL.wav,0.0,27.0,64.0,b,1.10107966201,2020_Feb_26_1123,59.966808153900004,duckFrog,True,Animal,Duck1
28,29,4,5,1380,fixationIA,distIA,560.0,targetIA,184.0,targetIA,148.0,targetIA,distIA,560.0,duck,frogFront.png,duckFront.png,landoltCBottom.png,landoltCL.png,LcongWN,b,wnR.wav,0.0,28.0,13.0,b,2.13488773773,2020_Feb_26_1123,59.966808153900004,duckFrog,True,White Noise,Frog2
29,30,4,3,224,fixationIA,fixationIA,1060.0,targetIA,592.0,,,,targetIA,592.0,frog,duckFront.png,frogFront.png,landoltCBottom.png,landoltCL.png,Hcong,b,ribbitR.wav,0.0,29.0,20.0,b,1.26814868794,2020_Feb_26_1123,59.966808153900004,duckFrog,True,Animal,Duck1
30,31,4,6,1420,fixationIA,distIA,212.0,distIA,104.0,targetIA,176.0,targetIA,distIA,212.0,frog,duckFront.png,frogFront.png,landoltCTop.png,landoltCR.png,HinCongWN,h,wnL.wav,0.0,30.0,31.0,h,1.9517502444900001,2020_Feb_26_1123,59.966808153900004,duckFrog,True,White Noise,Frog1
31,32,4,3,960,fixationIA,targetIA,596.0,fixationIA,100.0,,,,targetIA,596.0,frog,frogFront.png,duckFront.png,landoltCL.png,landoltCBottom.png,Hcong,b,ribbitL.wav,0.0,31.0,32.0,b,1.1342158356299998,2020_Feb_26_1123,59.966808153900004,duckFrog,True,Animal,Duck1
32,33,4,2,1372,fixationIA,targetIA,360.0,,,,,,targetIA,360.0,frog,duckFront.png,frogFront.png,landoltCBottom.png,landoltCL.png,Hcong,b,ribbitR.wav,0.0,32.0,68.0,b,1.13409523781,2020_Feb_26_1123,59.966808153900004,duckFrog,True,Animal,Duck1
33,34,4,6,1356,fixationIA,distIA,188.0,distIA,152.0,targetIA,168.0,targetIA,distIA,188.0,frog,frogFront.png,duckFront.png,landoltCR.png,landoltCTop.png,HinCong,h,quackR.wav,0.0,33.0,42.0,h,1.73465695238,2020_Feb_26_1123,59.966808153900004,duckFrog,True,Animal,Frog1
34,35,4,3,1204,fixationIA,targetIA,364.0,targetIA,220.0,,,,targetIA,364.0,frog,frogFront.png,duckFront.png,landoltCR.png,landoltCBottom.png,HcongWN,b,wnL.wav,0.0,34.0,33.0,b,1.20123229705,2020_Feb_26_1123,59.966808153900004,duckFrog,True,White Noise,Duck1
35,36,4,4,1272,fixationIA,targetIA,356.0,distIA,176.0,distIA,272.0,,targetIA,356.0,frog,duckFront.png,frogFront.png,landoltCBottom.png,landoltCL.png,HinCong,b,quackL.wav,0.0,35.0,38.0,b,1.5844408293599999,2020_Feb_26_1123,59.966808153900004,duckFrog,True,Animal,Frog1
36,37,4,2,980,fixationIA,targetIA,476.0,,,,,,targetIA,476.0,frog,frogFront.png,duckFront.png,landoltCR.png,landoltCBottom.png,HcongWN,b,wnL.wav,0.0,36.0,65.0,b,0.85058957302,2020_Feb_26_1123,59.966808153900004,duckFrog,True,White Noise,Duck1
37,38,4,4,1520,fixationIA,distIA,280.0,targetIA,172.0,targetIA,276.0,,distIA,280.0,duck,duckFront.png,frogFront.png,landoltCL.png,landoltCTop.png,Lcong,h,quackL.wav,0.0,37.0,0.0,h,1.70155706807,2020_Feb_26_1123,59.966808153900004,duckFrog,True,Animal,Frog2
38,39,4,6,1124,fixationIA,targetIA,160.0,targetIA,184.0,targetIA,68.0,distIA,targetIA,160.0,frog,duckFront.png,frogFront.png,landoltCTop.png,landoltCL.png,Hcong,h,ribbitR.wav,0.0,38.0,60.0,h,1.33439354328,2020_Feb_26_1123,59.966808153900004,duckFrog,True,Animal,Duck1
39,40,4,5,1096,fixationIA,distIA,252.0,distIA,112.0,targetIA,184.0,targetIA,distIA,252.0,duck,frogFront.png,duckFront.png,landoltCTop.png,landoltCR.png,Lcong,h,quackR.wav,0.0,39.0,4.0,h,1.55169320796,2020_Feb_26_1123,59.966808153900004,duckFrog,True,Animal,Frog2
40,41,4,4,1148,fixationIA,targetIA,192.0,targetIA,140.0,targetIA,288.0,,targetIA,192.0,frog,duckFront.png,frogFront.png,landoltCBottom.png,landoltCR.png,HinCongWN,b,wnL.wav,0.0,40.0,71.0,b,1.18441788279,2020_Feb_26_1123,59.966808153900004,duckFrog,True,White Noise,Frog1
41,42,4,8,432,fixationIA,targetIA,184.0,fixationIA,664.0,distIA,212.0,distIA,targetIA,184.0,frog,duckFront.png,frogFront.png,landoltCBottom.png,landoltCL.png,HinCong,b,quackL.wav,0.0,41.0,70.0,b,2.35209356337,2020_Feb_26_1123,59.966808153900004,duckFrog,True,Animal,Frog1
42,43,4,5,1288,fixationIA,targetIA,172.0,targetIA,176.0,targetIA,128.0,distIA,targetIA,172.0,frog,duckFront.png,frogFront.png,landoltCTop.png,landoltCR.png,HinCongWN,h,wnL.wav,0.0,42.0,47.0,h,1.5681626904799997,2020_Feb_26_1123,59.966808153900004,duckFrog,True,White Noise,Frog1
43,44,4,4,1420,fixationIA,targetIA,168.0,targetIA,172.0,targetIA,424.0,,targetIA,168.0,frog,frogFront.png,duckFront.png,landoltCL.png,landoltCTop.png,HinCongWN,h,wnR.wav,0.0,43.0,43.0,h,1.68485738667,2020_Feb_26_1123,59.966808153900004,duckFrog,True,White Noise,Frog1
44,45,4,3,1260,fixationIA,targetIA,204.0,targetIA,412.0,,,,targetIA,204.0,frog,duckFront.png,frogFront.png,landoltCBottom.png,landoltCL.png,Hcong,b,ribbitR.wav,0.0,44.0,52.0,b,1.4177544907,2020_Feb_26_1123,59.966808153900004,duckFrog,True,Animal,Duck1
45,46,4,5,1464,fixationIA,distIA,336.0,targetIA,140.0,targetIA,172.0,targetIA,distIA,336.0,frog,duckFront.png,frogFront.png,landoltCTop.png,landoltCR.png,HcongWN,h,wnR.wav,0.0,45.0,77.0,h,1.95173631527,2020_Feb_26_1123,59.966808153900004,duckFrog,True,White Noise,Duck1
46,47,4,4,608,fixationIA,fixationIA,616.0,targetIA,200.0,targetIA,440.0,,targetIA,200.0,frog,duckFront.png,frogFront.png,landoltCBottom.png,landoltCL.png,Hcong,b,ribbitR.wav,0.0,46.0,36.0,b,1.28469368155,2020_Feb_26_1123,59.966808153900004,duckFrog,True,Animal,Duck1
47,48,4,4,1188,fixationIA,targetIA,176.0,targetIA,160.0,targetIA,300.0,,targetIA,176.0,frog,frogFront.png,duckFront.png,landoltCL.png,landoltCTop.png,HcongWN,h,wnL.wav,0.0,47.0,25.0,h,1.26758602033,2020_Feb_26_1123,59.966808153900004,duckFrog,True,White Noise,Duck1
48,49,4,3,1300,fixationIA,targetIA,232.0,targetIA,296.0,,,,targetIA,232.0,frog,duckFront.png,frogFront.png,landoltCTop.png,landoltCL.png,Hcong,h,ribbitR.wav,0.0,48.0,44.0,h,1.4177852816499998,2020_Feb_26_1123,59.966808153900004,duckFrog,True,Animal,Duck1
49,50,4,7,420,fixationIA,fixationIA,96.0,fixationIA,764.0,distIA,220.0,distIA,distIA,220.0,frog,frogFront.png,duckFront.png,landoltCR.png,landoltCBottom.png,HinCongWN,b,wnR.wav,0.0,49.0,35.0,b,1.8013556074000001,2020_Feb_26_1123,59.966808153900004,duckFrog,True,White Noise,Frog1
50,51,4,2,1024,fixationIA,targetIA,512.0,,,,,,targetIA,512.0,frog,frogFront.png,duckFront.png,landoltCL.png,landoltCBottom.png,HinCong,b,quackR.wav,0.0,50.0,34.0,b,1.00098017797,2020_Feb_26_1123,59.966808153900004,duckFrog,True,Animal,Frog1
51,52,4,3,960,fixationIA,targetIA,244.0,targetIA,344.0,,,,targetIA,244.0,frog,duckFront.png,frogFront.png,landoltCTop.png,landoltCL.png,HinCong,h,quackL.wav,0.0,51.0,62.0,h,0.967383240059,2020_Feb_26_1123,59.966808153900004,duckFrog,True,Animal,Frog1
52,53,4,6,1216,fixationIA,distIA,188.0,distIA,168.0,distIA,76.0,targetIA,distIA,188.0,frog,duckFront.png,frogFront.png,landoltCTop.png,landoltCR.png,HcongWN,h,wnR.wav,0.0,52.0,29.0,h,1.7851786387200002,2020_Feb_26_1123,59.966808153900004,duckFrog,True,White Noise,Duck1
53,54,4,3,1104,fixationIA,targetIA,200.0,targetIA,392.0,,,,targetIA,200.0,frog,duckFront.png,frogFront.png,landoltCBottom.png,landoltCR.png,HcongWN,b,wnR.wav,0.0,53.0,53.0,b,1.0844093053200001,2020_Feb_26_1123,59.966808153900004,duckFrog,True,White Noise,Duck1
54,55,4,5,1024,fixationIA,distIA,220.0,distIA,192.0,targetIA,164.0,targetIA,distIA,220.0,duck,frogFront.png,duckFront.png,landoltCBottom.png,landoltCL.png,LinCongWN,b,wnL.wav,0.0,54.0,15.0,b,1.6848537210899999,2020_Feb_26_1123,59.966808153900004,duckFrog,True,White Noise,Duck2
55,56,4,5,1204,fixationIA,targetIA,196.0,targetIA,84.0,distIA,280.0,distIA,targetIA,196.0,frog,duckFront.png,frogFront.png,landoltCTop.png,landoltCR.png,HcongWN,h,wnR.wav,0.0,55.0,45.0,h,1.40131250009,2020_Feb_26_1123,59.966808153900004,duckFrog,True,White Noise,Duck1
56,57,4,5,1324,fixationIA,targetIA,164.0,targetIA,164.0,targetIA,152.0,distIA,targetIA,164.0,frog,frogFront.png,duckFront.png,landoltCR.png,landoltCTop.png,HinCong,h,quackR.wav,0.0,56.0,74.0,h,1.61773682258,2020_Feb_26_1123,59.966808153900004,duckFrog,True,Animal,Frog1
57,58,4,3,1172,fixationIA,targetIA,240.0,targetIA,268.0,,,,targetIA,240.0,frog,duckFront.png,frogFront.png,landoltCTop.png,landoltCL.png,HinCong,h,quackL.wav,0.0,57.0,30.0,h,1.11753081658,2020_Feb_26_1123,59.966808153900004,duckFrog,True,Animal,Frog1
58,59,4,4,1152,fixationIA,targetIA,168.0,targetIA,168.0,targetIA,260.0,,targetIA,168.0,frog,duckFront.png,frogFront.png,landoltCTop.png,landoltCL.png,Hcong,h,ribbitR.wav,0.0,58.0,28.0,h,1.1512989374200002,2020_Feb_26_1123,59.966808153900004,duckFrog,True,Animal,Duck1
59,60,4,5,1044,fixationIA,distIA,224.0,distIA,184.0,targetIA,172.0,targetIA,distIA,224.0,duck,frogFront.png,duckFront.png,landoltCTop.png,landoltCL.png,LcongWN,h,wnR.wav,0.0,59.0,5.0,h,1.68485958602,2020_Feb_26_1123,59.966808153900004,duckFrog,True,White Noise,Frog2
60,61,4,5,980,fixationIA,distIA,284.0,distIA,144.0,targetIA,152.0,targetIA,distIA,284.0,frog,frogFront.png,duckFront.png,landoltCR.png,landoltCBottom.png,HinCongWN,b,wnR.wav,0.0,60.0,51.0,b,1.71793491091,2020_Feb_26_1123,59.966808153900004,duckFrog,True,White Noise,Frog1
61,62,4,5,936,fixationIA,distIA,228.0,distIA,172.0,targetIA,220.0,targetIA,distIA,228.0,frog,duckFront.png,frogFront.png,landoltCBottom.png,landoltCR.png,HinCongWN,b,wnL.wav,0.0,61.0,39.0,b,1.4844619431400001,2020_Feb_26_1123,59.966808153900004,duckFrog,True,White Noise,Frog1
62,63,4,4,1252,fixationIA,targetIA,164.0,targetIA,164.0,targetIA,360.0,,targetIA,164.0,frog,duckFront.png,frogFront.png,landoltCTop.png,landoltCR.png,HcongWN,h,wnR.wav,0.0,62.0,61.0,h,1.3177319840000001,2020_Feb_26_1123,59.966808153900004,duckFrog,True,White Noise,Duck1
63,64,4,4,1124,fixationIA,targetIA,188.0,targetIA,112.0,targetIA,332.0,,targetIA,188.0,frog,frogFront.png,duckFront.png,landoltCR.png,landoltCTop.png,Hcong,h,ribbitL.wav,0.0,63.0,24.0,h,1.15086089977,2020_Feb_26_1123,59.966808153900004,duckFrog,True,Animal,Duck1
64,65,4,4,1244,fixationIA,targetIA,252.0,targetIA,80.0,distIA,168.0,,targetIA,252.0,frog,frogFront.png,duckFront.png,landoltCL.png,landoltCBottom.png,Hcong,b,ribbitL.wav,0.0,64.0,16.0,b,1.3512559767399999,2020_Feb_26_1123,59.966808153900004,duckFrog,True,Animal,Duck1
65,66,4,7,452,fixationIA,fixationIA,104.0,targetIA,632.0,fixationIA,152.0,fixationIA,targetIA,632.0,frog,frogFront.png,duckFront.png,landoltCR.png,landoltCBottom.png,HcongWN,b,wnL.wav,0.0,65.0,17.0,b,1.5681242018200001,2020_Feb_26_1123,59.966808153900004,duckFrog,True,White Noise,Duck1
66,67,4,5,1424,fixationIA,distIA,384.0,targetIA,168.0,targetIA,180.0,targetIA,distIA,384.0,frog,frogFront.png,duckFront.png,landoltCL.png,landoltCTop.png,HcongWN,h,wnL.wav,0.0,66.0,57.0,h,1.86833761229,2020_Feb_26_1123,59.966808153900004,duckFrog,True,White Noise,Duck1
67,68,4,3,1212,fixationIA,targetIA,204.0,targetIA,308.0,,,,targetIA,204.0,frog,frogFront.png,duckFront.png,landoltCR.png,landoltCTop.png,Hcong,h,ribbitL.wav,0.0,67.0,72.0,h,1.1344497000799998,2020_Feb_26_1123,59.966808153900004,duckFrog,True,Animal,Duck1
68,69,4,5,556,fixationIA,targetIA,312.0,distIA,72.0,distIA,216.0,distIA,targetIA,312.0,frog,duckFront.png,frogFront.png,landoltCTop.png,landoltCR.png,HinCongWN,h,wnL.wav,0.0,68.0,79.0,h,1.56775984247,2020_Feb_26_1123,59.966808153900004,duckFrog,True,White Noise,Frog1
69,70,4,4,1340,fixationIA,targetIA,180.0,targetIA,168.0,targetIA,396.0,,targetIA,180.0,frog,frogFront.png,duckFront.png,landoltCR.png,landoltCBottom.png,HinCongWN,b,wnR.wav,0.0,69.0,19.0,b,1.50088560583,2020_Feb_26_1123,59.966808153900004,duckFrog,True,White Noise,Frog1
70,71,4,5,956,fixationIA,distIA,180.0,distIA,144.0,targetIA,164.0,targetIA,distIA,180.0,frog,duckFront.png,frogFront.png,landoltCBottom.png,landoltCR.png,HcongWN,b,wnR.wav,0.0,70.0,21.0,b,1.451057082,2020_Feb_26_1123,59.966808153900004,duckFrog,True,White Noise,Duck1
71,72,4,4,1044,fixationIA,targetIA,152.0,targetIA,208.0,targetIA,504.0,,targetIA,152.0,frog,frogFront.png,duckFront.png,landoltCL.png,landoltCTop.png,HinCongWN,h,wnR.wav,0.0,71.0,59.0,h,1.4678297085499998,2020_Feb_26_1123,59.966808153900004,duckFrog,True,White Noise,Frog1
72,73,4,5,1136,fixationIA,distIA,512.0,targetIA,176.0,targetIA,176.0,targetIA,distIA,512.0,duck,frogFront.png,duckFront.png,landoltCBottom.png,landoltCR.png,LinCong,b,ribbitL.wav,0.0,72.0,14.0,b,1.96796093658,2020_Feb_26_1123,59.966808153900004,duckFrog,True,Animal,Duck2
73,74,4,7,1032,fixationIA,distIA,176.0,distIA,128.0,distIA,216.0,targetIA,distIA,176.0,frog,frogFront.png,duckFront.png,landoltCR.png,landoltCTop.png,HinCong,h,quackR.wav,0.0,73.0,26.0,h,1.8013841989700001,2020_Feb_26_1123,59.966808153900004,duckFrog,True,Animal,Frog1
74,75,4,6,1260,fixationIA,distIA,184.0,distIA,152.0,distIA,128.0,targetIA,distIA,184.0,frog,duckFront.png,frogFront.png,landoltCBottom.png,landoltCR.png,HcongWN,b,wnR.wav,0.0,74.0,69.0,b,1.9513162389900003,2020_Feb_26_1123,59.966808153900004,duckFrog,True,White Noise,Duck1
75,76,4,4,1356,fixationIA,distIA,400.0,targetIA,188.0,targetIA,620.0,,distIA,400.0,frog,frogFront.png,duckFront.png,landoltCL.png,landoltCBottom.png,HinCong,b,quackR.wav,0.0,75.0,50.0,b,2.06827852303,2020_Feb_26_1123,59.966808153900004,duckFrog,True,Animal,Frog1
76,77,4,3,1328,fixationIA,targetIA,368.0,targetIA,408.0,,,,targetIA,368.0,frog,frogFront.png,duckFront.png,landoltCL.png,landoltCTop.png,HinCongWN,h,wnR.wav,0.0,76.0,75.0,h,1.53470137928,2020_Feb_26_1123,59.966808153900004,duckFrog,True,White Noise,Frog1
77,78,4,6,1256,fixationIA,distIA,148.0,distIA,156.0,distIA,452.0,targetIA,distIA,148.0,duck,frogFront.png,duckFront.png,landoltCTop.png,landoltCL.png,LinCongWN,h,wnL.wav,0.0,77.0,7.0,h,2.2348105404700003,2020_Feb_26_1123,59.966808153900004,duckFrog,True,White Noise,Duck2
78,79,4,6,1164,fixationIA,distIA,204.0,distIA,176.0,distIA,276.0,targetIA,distIA,204.0,frog,duckFront.png,frogFront.png,landoltCBottom.png,landoltCL.png,HinCong,b,quackL.wav,0.0,78.0,54.0,b,1.93504982999,2020_Feb_26_1123,59.966808153900004,duckFrog,True,Animal,Frog1
79,80,4,5,1136,fixationIA,targetIA,188.0,targetIA,200.0,targetIA,256.0,distIA,targetIA,188.0,duck,duckFront.png,frogFront.png,landoltCL.png,landoltCBottom.png,LcongWN,b,wnL.wav,0.0,79.0,9.0,b,1.8346450025599998,2020_Feb_26_1123,59.966808153900004,duckFrog,True,White Noise,Frog2
80,81,4,2,1416,fixationIA,targetIA,684.0,,,,,,targetIA,684.0,frog,duckFront.png,frogFront.png,landoltCBottom.png,landoltCL.png,Hcong,b,ribbitR.wav,1.0,0.0,20.0,b,1.45111793073,2020_Feb_26_1123,59.966808153900004,duckFrog,True,Animal,Duck1
81,82,4,3,1352,fixationIA,targetIA,156.0,targetIA,368.0,,,,targetIA,156.0,frog,frogFront.png,duckFront.png,landoltCL.png,landoltCBottom.png,Hcong,b,ribbitL.wav,1.0,1.0,16.0,b,1.26752260567,2020_Feb_26_1123,59.966808153900004,duckFrog,True,Animal,Duck1
82,83,4,3,1100,fixationIA,targetIA,276.0,targetIA,372.0,,,,targetIA,276.0,frog,frogFront.png,duckFront.png,landoltCR.png,landoltCTop.png,Hcong,h,ribbitL.wav,1.0,2.0,72.0,h,1.1511578123200001,2020_Feb_26_1123,59.966808153900004,duckFrog,True,Animal,Duck1
83,84,4,3,1384,fixationIA,targetIA,216.0,targetIA,420.0,,,,targetIA,216.0,frog,frogFront.png,duckFront.png,landoltCL.png,landoltCTop.png,HcongWN,h,wnL.wav,1.0,3.0,25.0,h,1.3848419178799998,2020_Feb_26_1123,59.966808153900004,duckFrog,True,White Noise,Duck1
84,85,4,6,1060,fixationIA,distIA,204.0,distIA,176.0,distIA,92.0,targetIA,distIA,204.0,,,,,,,,,,,,,,,,,,,
85,86,4,3,916,fixationIA,targetIA,156.0,targetIA,704.0,,,,targetIA,156.0,frog,frogFront.png,duckFront.png,landoltCL.png,landoltCBottom.png,HinCong,b,quackR.wav,1.0,5.0,18.0,b,1.1508121474600002,2020_Feb_26_1123,59.966808153900004,duckFrog,True,Animal,Frog1
86,87,4,3,1012,fixationIA,targetIA,352.0,targetIA,292.0,,,,targetIA,352.0,frog,frogFront.png,duckFront.png,landoltCL.png,landoltCTop.png,HinCongWN,h,wnR.wav,1.0,6.0,27.0,h,1.21793637714,2020_Feb_26_1123,59.966808153900004,duckFrog,True,White Noise,Frog1
87,88,4,3,576,fixationIA,targetIA,284.0,targetIA,704.0,,,,targetIA,284.0,frog,duckFront.png,frogFront.png,landoltCTop.png,landoltCL.png,Hcong,h,ribbitR.wav,1.0,7.0,60.0,h,1.1005569493,2020_Feb_26_1123,59.966808153900004,duckFrog,True,Animal,Duck1
88,89,4,2,1268,fixationIA,targetIA,956.0,,,,,,targetIA,956.0,frog,duckFront.png,frogFront.png,landoltCBottom.png,landoltCR.png,HcongWN,b,wnR.wav,1.0,8.0,21.0,b,1.6181473683200003,2020_Feb_26_1123,59.966808153900004,duckFrog,True,White Noise,Duck1
89,90,4,2,1084,fixationIA,targetIA,768.0,,,,,,targetIA,768.0,frog,frogFront.png,duckFront.png,landoltCR.png,landoltCTop.png,HinCong,h,quackR.wav,1.0,9.0,74.0,h,1.38446069685,2020_Feb_26_1123,59.966808153900004,duckFrog,True,Animal,Frog1
90,91,4,9,444,fixationIA,distIA,224.0,fixationIA,300.0,distIA,172.0,distIA,distIA,224.0,frog,duckFront.png,frogFront.png,landoltCTop.png,landoltCL.png,HinCong,h,quackL.wav,1.0,10.0,46.0,h,2.18506339267,2020_Feb_26_1123,59.966808153900004,duckFrog,True,Animal,Frog1
91,92,4,3,1284,fixationIA,targetIA,160.0,targetIA,780.0,,,,targetIA,160.0,frog,frogFront.png,duckFront.png,landoltCR.png,landoltCTop.png,Hcong,h,ribbitL.wav,1.0,11.0,24.0,h,1.6014528187700001,2020_Feb_26_1123,59.966808153900004,duckFrog,True,Animal,Duck1
92,93,4,4,928,fixationIA,targetIA,920.0,distIA,176.0,distIA,196.0,,targetIA,920.0,duck,duckFront.png,frogFront.png,landoltCR.png,landoltCTop.png,LcongWN,h,wnL.wav,1.0,12.0,1.0,h,1.9183461164500002,2020_Feb_26_1123,59.966808153900004,duckFrog,True,White Noise,Frog2
93,94,4,6,1128,fixationIA,distIA,164.0,distIA,168.0,distIA,116.0,targetIA,distIA,164.0,duck,frogFront.png,duckFront.png,landoltCBottom.png,landoltCL.png,LinCongWN,b,wnL.wav,1.0,13.0,15.0,b,1.6679080788,2020_Feb_26_1123,59.966808153900004,duckFrog,True,White Noise,Duck2
94,95,4,6,1072,fixationIA,fixationIA,808.0,distIA,204.0,distIA,272.0,targetIA,distIA,204.0,,,,,,,,,,,,,,,,,,,
95,96,4,3,484,fixationIA,targetIA,356.0,targetIA,784.0,,,,targetIA,356.0,frog,duckFront.png,frogFront.png,landoltCTop.png,landoltCR.png,HcongWN,h,wnR.wav,1.0,15.0,45.0,h,1.16756058116,2020_Feb_26_1123,59.966808153900004,duckFrog,True,White Noise,Duck1
96,97,4,2,1220,fixationIA,targetIA,596.0,,,,,,targetIA,596.0,frog,frogFront.png,duckFront.png,landoltCR.png,landoltCBottom.png,HinCongWN,b,wnR.wav,1.0,16.0,35.0,b,1.20066193171,2020_Feb_26_1123,59.966808153900004,duckFrog,True,White Noise,Frog1
97,98,4,5,1400,fixationIA,distIA,388.0,targetIA,184.0,targetIA,180.0,targetIA,distIA,388.0,frog,duckFront.png,frogFront.png,landoltCTop.png,landoltCR.png,HinCongWN,h,wnL.wav,1.0,17.0,47.0,h,1.93455277638,2020_Feb_26_1123,59.966808153900004,duckFrog,True,White Noise,Frog1
98,99,4,5,1140,fixationIA,targetIA,196.0,targetIA,196.0,distIA,100.0,distIA,targetIA,196.0,frog,frogFront.png,duckFront.png,landoltCL.png,landoltCTop.png,HinCongWN,h,wnR.wav,1.0,18.0,75.0,h,1.88462674792,2020_Feb_26_1123,59.966808153900004,duckFrog,True,White Noise,Frog1
99,100,4,6,520,fixationIA,fixationIA,644.0,distIA,204.0,distIA,160.0,targetIA,distIA,204.0,duck,frogFront.png,duckFront.png,landoltCTop.png,landoltCL.png,LinCongWN,h,wnL.wav,1.0,19.0,7.0,h,1.63479683117,2020_Feb_26_1123,59.966808153900004,duckFrog,True,White Noise,Duck2
100,101,4,4,1040,fixationIA,distIA,360.0,targetIA,172.0,targetIA,280.0,,distIA,360.0,duck,frogFront.png,duckFront.png,landoltCTop.png,landoltCL.png,LcongWN,h,wnR.wav,1.0,20.0,5.0,h,1.53476332771,2020_Feb_26_1123,59.966808153900004,duckFrog,True,White Noise,Frog2
101,102,4,4,1516,fixationIA,targetIA,288.0,distIA,272.0,distIA,96.0,,targetIA,288.0,frog,frogFront.png,duckFront.png,landoltCL.png,landoltCBottom.png,HinCong,b,quackR.wav,1.0,21.0,50.0,b,1.70147972417,2020_Feb_26_1123,59.966808153900004,duckFrog,True,Animal,Frog1
102,103,4,6,1056,fixationIA,distIA,164.0,distIA,188.0,distIA,76.0,targetIA,distIA,164.0,duck,frogFront.png,duckFront.png,landoltCBottom.png,landoltCL.png,LcongWN,b,wnR.wav,1.0,22.0,13.0,b,1.80131052068,2020_Feb_26_1123,59.966808153900004,duckFrog,True,White Noise,Frog2
103,104,4,6,1060,fixationIA,distIA,212.0,distIA,124.0,targetIA,220.0,targetIA,distIA,212.0,frog,duckFront.png,frogFront.png,landoltCTop.png,landoltCL.png,HinCong,h,quackL.wav,1.0,23.0,62.0,h,1.68490320652,2020_Feb_26_1123,59.966808153900004,duckFrog,True,Animal,Frog1
104,105,4,3,1104,fixationIA,targetIA,184.0,targetIA,392.0,,,,targetIA,184.0,frog,duckFront.png,frogFront.png,landoltCTop.png,landoltCL.png,Hcong,h,ribbitR.wav,1.0,24.0,28.0,h,1.23469177545,2020_Feb_26_1123,59.966808153900004,duckFrog,True,Animal,Duck1
105,106,4,5,1056,fixationIA,distIA,228.0,distIA,120.0,targetIA,252.0,targetIA,distIA,228.0,duck,duckFront.png,frogFront.png,landoltCR.png,landoltCBottom.png,LinCong,b,ribbitR.wav,1.0,25.0,10.0,b,1.25090246752,2020_Feb_26_1123,59.966808153900004,duckFrog,True,Animal,Duck2
106,107,4,5,960,fixationIA,targetIA,200.0,targetIA,160.0,distIA,284.0,distIA,targetIA,200.0,,,,,,,,,,,,,,,,,,,
107,108,4,4,576,fixationIA,targetIA,236.0,fixationIA,348.0,targetIA,556.0,,targetIA,236.0,frog,frogFront.png,duckFront.png,landoltCR.png,landoltCTop.png,HinCong,h,quackR.wav,1.0,27.0,42.0,h,1.4012930724700001,2020_Feb_26_1123,59.966808153900004,duckFrog,True,Animal,Frog1
108,109,4,2,904,fixationIA,targetIA,768.0,,,,,,targetIA,768.0,frog,duckFront.png,frogFront.png,landoltCBottom.png,landoltCR.png,HcongWN,b,wnR.wav,1.0,28.0,37.0,b,1.20092035559,2020_Feb_26_1123,59.966808153900004,duckFrog,True,White Noise,Duck1
109,110,4,3,1412,fixationIA,distIA,320.0,targetIA,608.0,,,,distIA,320.0,frog,duckFront.png,frogFront.png,landoltCBottom.png,landoltCR.png,HinCongWN,b,wnL.wav,1.0,29.0,23.0,b,2.0183810861500002,2020_Feb_26_1123,59.966808153900004,duckFrog,True,White Noise,Frog1
110,111,4,6,1032,fixationIA,distIA,156.0,distIA,172.0,distIA,148.0,targetIA,distIA,156.0,frog,duckFront.png,frogFront.png,landoltCTop.png,landoltCL.png,Hcong,h,ribbitR.wav,1.0,30.0,76.0,h,1.76824142729,2020_Feb_26_1123,59.966808153900004,duckFrog,True,Animal,Duck1
111,112,4,6,1080,fixationIA,distIA,208.0,distIA,332.0,targetIA,140.0,targetIA,distIA,208.0,duck,duckFront.png,frogFront.png,landoltCL.png,landoltCBottom.png,LcongWN,b,wnL.wav,1.0,31.0,9.0,b,1.8345485976299998,2020_Feb_26_1123,59.966808153900004,duckFrog,True,White Noise,Frog2
112,113,4,4,1344,fixationIA,targetIA,192.0,targetIA,248.0,distIA,200.0,,targetIA,192.0,frog,duckFront.png,frogFront.png,landoltCBottom.png,landoltCR.png,HinCongWN,b,wnL.wav,1.0,32.0,55.0,b,1.6346065872100002,2020_Feb_26_1123,59.966808153900004,duckFrog,True,White Noise,Frog1
113,114,4,4,724,fixationIA,distIA,396.0,targetIA,180.0,targetIA,660.0,,distIA,396.0,frog,duckFront.png,frogFront.png,landoltCTop.png,landoltCR.png,HinCongWN,h,wnL.wav,1.0,33.0,63.0,h,1.65145215896,2020_Feb_26_1123,59.966808153900004,duckFrog,True,White Noise,Frog1
114,115,4,4,524,fixationIA,fixationIA,228.0,targetIA,208.0,targetIA,672.0,,targetIA,208.0,frog,duckFront.png,frogFront.png,landoltCBottom.png,landoltCL.png,HinCong,b,quackL.wav,1.0,34.0,38.0,b,1.4012512847799998,2020_Feb_26_1123,59.966808153900004,duckFrog,True,Animal,Frog1
115,116,4,5,1308,fixationIA,targetIA,608.0,distIA,184.0,distIA,148.0,targetIA,targetIA,608.0,,,,,,,,,,,,,,,,,,,
116,117,4,7,1340,fixationIA,targetIA,252.0,targetIA,600.0,distIA,184.0,distIA,targetIA,252.0,frog,frogFront.png,duckFront.png,landoltCR.png,landoltCTop.png,HinCong,h,quackR.wav,1.0,36.0,58.0,h,2.7023371049900002,2020_Feb_26_1123,59.966808153900004,duckFrog,True,Animal,Frog1
117,118,4,2,1184,fixationIA,targetIA,640.0,,,,,,targetIA,640.0,frog,frogFront.png,duckFront.png,landoltCR.png,landoltCBottom.png,HcongWN,b,wnL.wav,1.0,37.0,49.0,b,1.20136865688,2020_Feb_26_1123,59.966808153900004,duckFrog,True,White Noise,Duck1
118,119,4,3,1244,fixationIA,targetIA,216.0,targetIA,216.0,,,,targetIA,216.0,frog,duckFront.png,frogFront.png,landoltCTop.png,landoltCR.png,HcongWN,h,wnR.wav,1.0,38.0,29.0,h,1.30084572424,2020_Feb_26_1123,59.966808153900004,duckFrog,True,White Noise,Duck1
119,120,4,2,1128,fixationIA,targetIA,628.0,,,,,,targetIA,628.0,frog,frogFront.png,duckFront.png,landoltCR.png,landoltCBottom.png,HinCongWN,b,wnR.wav,1.0,39.0,51.0,b,1.15114424966,2020_Feb_26_1123,59.966808153900004,duckFrog,True,White Noise,Frog1
120,121,4,3,1140,fixationIA,targetIA,288.0,targetIA,572.0,,,,targetIA,288.0,frog,duckFront.png,frogFront.png,landoltCTop.png,landoltCL.png,Hcong,h,ribbitR.wav,1.0,40.0,44.0,h,1.41780874139,2020_Feb_26_1123,59.966808153900004,duckFrog,True,Animal,Duck1
121,122,4,3,1176,fixationIA,targetIA,216.0,targetIA,288.0,,,,targetIA,216.0,frog,duckFront.png,frogFront.png,landoltCBottom.png,landoltCL.png,Hcong,b,ribbitR.wav,1.0,41.0,52.0,b,1.06775361097,2020_Feb_26_1123,59.966808153900004,duckFrog,True,Animal,Duck1
122,123,4,5,1348,fixationIA,distIA,224.0,distIA,168.0,targetIA,180.0,targetIA,distIA,224.0,frog,duckFront.png,frogFront.png,landoltCBottom.png,landoltCL.png,HinCong,b,quackL.wav,1.0,42.0,22.0,b,1.91853526075,2020_Feb_26_1123,59.966808153900004,duckFrog,True,Animal,Frog1
123,124,4,5,60,fixationIA,fixationIA,1008.0,targetIA,172.0,targetIA,200.0,targetIA,targetIA,172.0,frog,frogFront.png,duckFront.png,landoltCL.png,landoltCTop.png,HinCongWN,h,wnR.wav,1.0,43.0,59.0,h,1.33413182037,2020_Feb_26_1123,59.966808153900004,duckFrog,True,White Noise,Frog1
124,125,4,3,1036,fixationIA,targetIA,188.0,targetIA,444.0,,,,targetIA,188.0,frog,frogFront.png,duckFront.png,landoltCL.png,landoltCTop.png,HcongWN,h,wnL.wav,1.0,44.0,57.0,h,1.11797508574,2020_Feb_26_1123,59.966808153900004,duckFrog,True,White Noise,Duck1
125,126,4,5,1140,fixationIA,distIA,240.0,distIA,344.0,targetIA,212.0,targetIA,distIA,240.0,duck,frogFront.png,duckFront.png,landoltCBottom.png,landoltCR.png,Lcong,b,quackR.wav,1.0,45.0,12.0,b,1.98489228306,2020_Feb_26_1123,59.966808153900004,duckFrog,True,Animal,Frog2
126,127,4,5,504,fixationIA,distIA,336.0,distIA,372.0,targetIA,40.0,targetIA,distIA,336.0,frog,duckFront.png,frogFront.png,landoltCBottom.png,landoltCL.png,HinCong,b,quackL.wav,1.0,46.0,54.0,b,1.4679561713100002,2020_Feb_26_1123,59.966808153900004,duckFrog,True,Animal,Frog1
127,128,4,3,1548,fixationIA,targetIA,212.0,targetIA,416.0,,,,targetIA,212.0,frog,duckFront.png,frogFront.png,landoltCBottom.png,landoltCR.png,HinCongWN,b,wnL.wav,1.0,47.0,39.0,b,1.58481911794,2020_Feb_26_1123,59.966808153900004,duckFrog,True,White Noise,Frog1
128,129,4,7,28,fixationIA,fixationIA,1256.0,distIA,100.0,distIA,172.0,distIA,distIA,100.0,frog,frogFront.png,duckFront.png,landoltCR.png,landoltCBottom.png,HinCongWN,b,wnR.wav,1.0,48.0,67.0,b,2.13473195028,2020_Feb_26_1123,59.966808153900004,duckFrog,True,White Noise,Frog1
129,130,4,5,1300,fixationIA,distIA,424.0,targetIA,228.0,targetIA,188.0,targetIA,distIA,424.0,frog,duckFront.png,frogFront.png,landoltCTop.png,landoltCR.png,HinCongWN,h,wnL.wav,1.0,49.0,31.0,h,2.0685321816599997,2020_Feb_26_1123,59.966808153900004,duckFrog,True,White Noise,Frog1
130,131,4,3,1296,fixationIA,targetIA,224.0,targetIA,892.0,,,,targetIA,224.0,frog,frogFront.png,duckFront.png,landoltCL.png,landoltCTop.png,HcongWN,h,wnL.wav,1.0,50.0,41.0,h,1.80142671977,2020_Feb_26_1123,59.966808153900004,duckFrog,True,White Noise,Duck1
131,132,4,3,1116,fixationIA,targetIA,184.0,targetIA,296.0,,,,targetIA,184.0,frog,duckFront.png,frogFront.png,landoltCBottom.png,landoltCL.png,Hcong,b,ribbitR.wav,1.0,51.0,68.0,b,1.0341288145999998,2020_Feb_26_1123,59.966808153900004,duckFrog,True,Animal,Duck1
132,133,4,6,1200,fixationIA,distIA,192.0,distIA,144.0,distIA,120.0,targetIA,distIA,192.0,duck,duckFront.png,frogFront.png,landoltCL.png,landoltCBottom.png,LinCongWN,b,wnR.wav,1.0,52.0,11.0,b,1.91811775038,2020_Feb_26_1123,59.966808153900004,duckFrog,True,White Noise,Duck2
133,134,4,3,976,fixationIA,targetIA,160.0,targetIA,584.0,,,,targetIA,160.0,frog,frogFront.png,duckFront.png,landoltCR.png,landoltCBottom.png,HinCongWN,b,wnR.wav,1.0,53.0,19.0,b,1.16790111418,2020_Feb_26_1123,59.966808153900004,duckFrog,True,White Noise,Frog1
134,135,4,2,1120,fixationIA,targetIA,616.0,,,,,,targetIA,616.0,frog,frogFront.png,duckFront.png,landoltCL.png,landoltCBottom.png,Hcong,b,ribbitL.wav,1.0,54.0,48.0,b,1.2846676559,2020_Feb_26_1123,59.966808153900004,duckFrog,True,Animal,Duck1
135,136,4,5,1200,fixationIA,distIA,152.0,distIA,276.0,targetIA,160.0,targetIA,distIA,152.0,frog,duckFront.png,frogFront.png,landoltCBottom.png,landoltCL.png,HinCong,b,quackL.wav,1.0,55.0,70.0,b,1.91817493354,2020_Feb_26_1123,59.966808153900004,duckFrog,True,Animal,Frog1
136,137,4,3,1084,fixationIA,targetIA,160.0,targetIA,524.0,,,,targetIA,160.0,frog,duckFront.png,frogFront.png,landoltCBottom.png,landoltCR.png,HcongWN,b,wnR.wav,1.0,56.0,69.0,b,1.3345826875700002,2020_Feb_26_1123,59.966808153900004,duckFrog,True,White Noise,Duck1
137,138,4,4,1068,fixationIA,targetIA,168.0,targetIA,192.0,targetIA,664.0,,targetIA,168.0,frog,frogFront.png,duckFront.png,landoltCR.png,landoltCTop.png,HinCong,h,quackR.wav,1.0,57.0,26.0,h,1.7180089557700002,2020_Feb_26_1123,59.966808153900004,duckFrog,True,Animal,Frog1
138,139,4,6,1180,fixationIA,distIA,180.0,distIA,116.0,distIA,120.0,targetIA,distIA,180.0,duck,frogFront.png,duckFront.png,landoltCTop.png,landoltCR.png,Lcong,h,quackR.wav,1.0,58.0,4.0,h,1.5678019967200003,2020_Feb_26_1123,59.966808153900004,duckFrog,True,Animal,Frog2
139,140,4,4,1028,fixationIA,distIA,412.0,targetIA,184.0,targetIA,276.0,,distIA,412.0,frog,duckFront.png,frogFront.png,landoltCBottom.png,landoltCR.png,HcongWN,b,wnR.wav,1.0,59.0,53.0,b,1.5848220504100001,2020_Feb_26_1123,59.966808153900004,duckFrog,True,White Noise,Duck1
140,141,4,2,1032,fixationIA,targetIA,1056.0,,,,,,targetIA,1056.0,duck,duckFront.png,frogFront.png,landoltCL.png,landoltCTop.png,Lcong,h,quackL.wav,1.0,60.0,0.0,h,1.61785375481,2020_Feb_26_1123,59.966808153900004,duckFrog,True,Animal,Frog2
141,142,4,5,944,fixationIA,distIA,184.0,distIA,456.0,targetIA,120.0,targetIA,distIA,184.0,frog,duckFront.png,frogFront.png,landoltCBottom.png,landoltCR.png,HinCongWN,b,wnL.wav,1.0,61.0,71.0,b,1.8516899822400001,2020_Feb_26_1123,59.966808153900004,duckFrog,True,White Noise,Frog1
142,143,4,2,1212,fixationIA,targetIA,896.0,,,,,,targetIA,896.0,duck,duckFront.png,frogFront.png,landoltCR.png,landoltCTop.png,LinCongWN,h,wnR.wav,1.0,62.0,3.0,h,1.63454830437,2020_Feb_26_1123,59.966808153900004,duckFrog,True,White Noise,Duck2
143,144,4,4,1136,fixationIA,distIA,312.0,targetIA,240.0,targetIA,276.0,,distIA,312.0,frog,duckFront.png,frogFront.png,landoltCTop.png,landoltCR.png,HcongWN,h,wnR.wav,1.0,63.0,61.0,h,1.46738177382,2020_Feb_26_1123,59.966808153900004,duckFrog,True,White Noise,Duck1
144,145,4,3,488,fixationIA,targetIA,176.0,targetIA,872.0,,,,targetIA,176.0,frog,frogFront.png,duckFront.png,landoltCL.png,landoltCBottom.png,HinCong,b,quackR.wav,1.0,64.0,34.0,b,0.9172306783290001,2020_Feb_26_1123,59.966808153900004,duckFrog,True,Animal,Frog1
145,146,4,3,1080,fixationIA,targetIA,232.0,targetIA,268.0,,,,targetIA,232.0,frog,duckFront.png,frogFront.png,landoltCBottom.png,landoltCL.png,Hcong,b,ribbitR.wav,1.0,65.0,36.0,b,0.950752471705,2020_Feb_26_1123,59.966808153900004,duckFrog,True,Animal,Duck1
146,147,4,4,992,fixationIA,distIA,464.0,targetIA,268.0,targetIA,388.0,,distIA,464.0,duck,frogFront.png,duckFront.png,landoltCBottom.png,landoltCR.png,LinCong,b,ribbitL.wav,1.0,66.0,14.0,b,1.6682016923299998,2020_Feb_26_1123,59.966808153900004,duckFrog,True,Animal,Duck2
147,148,4,4,1264,fixationIA,targetIA,252.0,targetIA,188.0,targetIA,204.0,,targetIA,252.0,frog,frogFront.png,duckFront.png,landoltCL.png,landoltCTop.png,HinCongWN,h,wnR.wav,1.0,67.0,43.0,h,1.56799993842,2020_Feb_26_1123,59.966808153900004,duckFrog,True,White Noise,Frog1
148,149,4,4,988,fixationIA,distIA,488.0,targetIA,140.0,targetIA,440.0,,distIA,488.0,duck,frogFront.png,duckFront.png,landoltCTop.png,landoltCR.png,LinCong,h,ribbitL.wav,1.0,68.0,6.0,h,1.5510630935499998,2020_Feb_26_1123,59.966808153900004,duckFrog,True,Animal,Duck2
149,150,4,4,128,fixationIA,fixationIA,896.0,targetIA,244.0,targetIA,352.0,,targetIA,244.0,frog,duckFront.png,frogFront.png,landoltCTop.png,landoltCL.png,HinCong,h,quackL.wav,1.0,69.0,78.0,h,1.20128434838,2020_Feb_26_1123,59.966808153900004,duckFrog,True,Animal,Frog1
150,151,4,3,1104,fixationIA,targetIA,264.0,targetIA,232.0,,,,targetIA,264.0,frog,frogFront.png,duckFront.png,landoltCL.png,landoltCBottom.png,Hcong,b,ribbitL.wav,1.0,70.0,64.0,b,0.9671757678299999,2020_Feb_26_1123,59.966808153900004,duckFrog,True,Animal,Duck1
151,152,4,3,1136,fixationIA,targetIA,144.0,targetIA,316.0,,,,targetIA,144.0,frog,frogFront.png,duckFront.png,landoltCR.png,landoltCBottom.png,HcongWN,b,wnL.wav,1.0,71.0,33.0,b,1.01769708762,2020_Feb_26_1123,59.966808153900004,duckFrog,True,White Noise,Duck1
152,153,4,3,1188,fixationIA,targetIA,156.0,targetIA,252.0,,,,targetIA,156.0,frog,frogFront.png,duckFront.png,landoltCR.png,landoltCBottom.png,HcongWN,b,wnL.wav,1.0,72.0,65.0,b,0.9845913383759999,2020_Feb_26_1123,59.966808153900004,duckFrog,True,White Noise,Duck1
153,154,4,3,1180,fixationIA,targetIA,388.0,targetIA,192.0,,,,targetIA,388.0,duck,duckFront.png,frogFront.png,landoltCR.png,landoltCBottom.png,Lcong,b,quackL.wav,1.0,73.0,8.0,b,1.16793483761,2020_Feb_26_1123,59.966808153900004,duckFrog,True,Animal,Frog2
154,155,4,5,1652,fixationIA,distIA,724.0,targetIA,184.0,targetIA,168.0,targetIA,distIA,724.0,frog,duckFront.png,frogFront.png,landoltCTop.png,landoltCR.png,HinCongWN,h,wnL.wav,1.0,74.0,79.0,h,2.45192069429,2020_Feb_26_1123,59.966808153900004,duckFrog,True,White Noise,Frog1
155,156,4,5,1012,fixationIA,distIA,332.0,distIA,104.0,targetIA,280.0,targetIA,distIA,332.0,frog,duckFront.png,frogFront.png,landoltCTop.png,landoltCL.png,HinCong,h,quackL.wav,1.0,75.0,30.0,h,1.6681386442200001,2020_Feb_26_1123,59.966808153900004,duckFrog,True,Animal,Frog1
156,157,4,2,1032,fixationIA,targetIA,676.0,,,,,,targetIA,676.0,frog,frogFront.png,duckFront.png,landoltCR.png,landoltCTop.png,Hcong,h,ribbitL.wav,1.0,76.0,56.0,h,1.0673514960700001,2020_Feb_26_1123,59.966808153900004,duckFrog,True,Animal,Duck1
157,158,4,4,136,fixationIA,fixationIA,856.0,targetIA,244.0,targetIA,248.0,,targetIA,244.0,frog,frogFront.png,duckFront.png,landoltCL.png,landoltCBottom.png,Hcong,b,ribbitL.wav,1.0,77.0,32.0,b,0.901055542447,2020_Feb_26_1123,59.966808153900004,duckFrog,True,Animal,Duck1
158,159,4,3,1008,fixationIA,targetIA,312.0,targetIA,424.0,,,,targetIA,312.0,frog,frogFront.png,duckFront.png,landoltCR.png,landoltCTop.png,Hcong,h,ribbitL.wav,1.0,78.0,40.0,h,1.23471266929,2020_Feb_26_1123,59.966808153900004,duckFrog,True,Animal,Duck1
159,160,4,4,1064,fixationIA,distIA,580.0,targetIA,176.0,targetIA,872.0,,distIA,580.0,,,,,,,,,,,,,,,,,,,
160,161,4,5,252,fixationIA,targetIA,292.0,targetIA,112.0,fixationIA,404.0,targetIA,targetIA,292.0,frog,frogFront.png,duckFront.png,landoltCL.png,landoltCBottom.png,HinCong,b,quackR.wav,2.0,0.0,66.0,b,1.18436729768,2020_Feb_26_1123,59.966808153900004,duckFrog,True,Animal,Frog1
161,162,4,4,1160,fixationIA,distIA,244.0,distIA,120.0,targetIA,888.0,,distIA,244.0,duck,duckFront.png,frogFront.png,landoltCR.png,landoltCTop.png,LinCongWN,h,wnR.wav,2.0,1.0,3.0,h,1.985157305,2020_Feb_26_1123,59.966808153900004,duckFrog,True,White Noise,Duck2
162,163,4,2,984,fixationIA,targetIA,648.0,,,,,,targetIA,648.0,frog,frogFront.png,duckFront.png,landoltCL.png,landoltCBottom.png,Hcong,b,ribbitL.wav,2.0,2.0,32.0,b,1.0512001865,2020_Feb_26_1123,59.966808153900004,duckFrog,True,Animal,Duck1
163,164,4,5,1188,fixationIA,distIA,196.0,distIA,304.0,targetIA,176.0,targetIA,distIA,196.0,frog,duckFront.png,frogFront.png,landoltCBottom.png,landoltCR.png,HinCongWN,b,wnL.wav,2.0,3.0,23.0,b,2.03493011191,2020_Feb_26_1123,59.966808153900004,duckFrog,True,White Noise,Frog1
164,165,4,10,456,fixationIA,distIA,172.0,distIA,72.0,fixationIA,468.0,targetIA,distIA,172.0,frog,duckFront.png,frogFront.png,landoltCTop.png,landoltCR.png,HinCongWN,h,wnL.wav,2.0,4.0,47.0,h,2.5522379142099996,2020_Feb_26_1123,59.966808153900004,duckFrog,True,White Noise,Frog1
165,166,4,5,1348,fixationIA,distIA,240.0,distIA,128.0,targetIA,176.0,targetIA,distIA,240.0,duck,duckFront.png,frogFront.png,landoltCR.png,landoltCTop.png,LcongWN,h,wnL.wav,2.0,5.0,1.0,h,1.88458825927,2020_Feb_26_1123,59.966808153900004,duckFrog,True,White Noise,Frog2
166,167,4,2,1180,fixationIA,targetIA,768.0,,,,,,targetIA,768.0,frog,frogFront.png,duckFront.png,landoltCR.png,landoltCTop.png,Hcong,h,ribbitL.wav,2.0,6.0,24.0,h,1.45151454725,2020_Feb_26_1123,59.966808153900004,duckFrog,True,Animal,Duck1
167,168,4,6,60,fixationIA,fixationIA,884.0,distIA,208.0,distIA,156.0,distIA,distIA,208.0,,,,,,,,,,,,,,,,,,,
168,169,4,2,1256,fixationIA,targetIA,392.0,,,,,,targetIA,392.0,frog,frogFront.png,duckFront.png,landoltCR.png,landoltCBottom.png,HinCongWN,b,wnR.wav,2.0,8.0,51.0,b,1.01742400139,2020_Feb_26_1123,59.966808153900004,duckFrog,True,White Noise,Frog1
169,170,4,3,1028,fixationIA,targetIA,292.0,targetIA,412.0,,,,targetIA,292.0,frog,frogFront.png,duckFront.png,landoltCL.png,landoltCTop.png,HcongWN,h,wnL.wav,2.0,9.0,41.0,h,1.13443723709,2020_Feb_26_1123,59.966808153900004,duckFrog,True,White Noise,Duck1
170,171,4,5,1184,fixationIA,distIA,248.0,distIA,212.0,targetIA,196.0,targetIA,distIA,248.0,duck,frogFront.png,duckFront.png,landoltCTop.png,landoltCL.png,LcongWN,h,wnR.wav,2.0,10.0,5.0,h,1.7681523535299999,2020_Feb_26_1123,59.966808153900004,duckFrog,True,White Noise,Frog2
171,172,4,3,1384,fixationIA,targetIA,216.0,targetIA,408.0,,,,targetIA,216.0,duck,duckFront.png,frogFront.png,landoltCR.png,landoltCBottom.png,LinCong,b,ribbitR.wav,2.0,11.0,10.0,b,1.4512319304899999,2020_Feb_26_1123,59.966808153900004,duckFrog,True,Animal,Duck2
172,173,4,2,1428,fixationIA,targetIA,468.0,,,,,,targetIA,468.0,frog,frogFront.png,duckFront.png,landoltCL.png,landoltCBottom.png,HinCong,b,quackR.wav,2.0,12.0,50.0,b,1.2680431190399999,2020_Feb_26_1123,59.966808153900004,duckFrog,True,Animal,Frog1
173,174,4,2,1276,fixationIA,targetIA,432.0,,,,,,targetIA,432.0,frog,frogFront.png,duckFront.png,landoltCL.png,landoltCBottom.png,Hcong,b,ribbitL.wav,2.0,13.0,64.0,b,1.0675824280500001,2020_Feb_26_1123,59.966808153900004,duckFrog,True,Animal,Duck1
174,175,4,4,1368,fixationIA,distIA,204.0,distIA,280.0,fixationIA,192.0,,distIA,204.0,,,,,,,,,,,,,,,,,,,
175,176,4,2,1024,fixationIA,targetIA,652.0,,,,,,targetIA,652.0,frog,duckFront.png,frogFront.png,landoltCBottom.png,landoltCR.png,HcongWN,b,wnR.wav,2.0,15.0,21.0,b,1.05107409031,2020_Feb_26_1123,59.966808153900004,duckFrog,True,White Noise,Duck1
176,177,4,3,1108,fixationIA,targetIA,216.0,targetIA,120.0,,,,targetIA,216.0,frog,duckFront.png,frogFront.png,landoltCTop.png,landoltCR.png,HcongWN,h,wnR.wav,2.0,16.0,45.0,h,0.850825270274,2020_Feb_26_1123,59.966808153900004,duckFrog,True,White Noise,Duck1
177,178,4,2,1176,fixationIA,targetIA,540.0,,,,,,targetIA,540.0,frog,duckFront.png,frogFront.png,landoltCTop.png,landoltCL.png,HinCong,h,quackL.wav,2.0,17.0,62.0,h,1.15116990876,2020_Feb_26_1123,59.966808153900004,duckFrog,True,Animal,Frog1
178,179,4,3,1204,fixationIA,targetIA,228.0,targetIA,340.0,,,,targetIA,228.0,frog,duckFront.png,frogFront.png,landoltCTop.png,landoltCL.png,HinCong,h,quackL.wav,2.0,18.0,46.0,h,1.1844867958299998,2020_Feb_26_1123,59.966808153900004,duckFrog,True,Animal,Frog1
179,180,4,3,1316,fixationIA,targetIA,192.0,targetIA,316.0,,,,targetIA,192.0,frog,frogFront.png,duckFront.png,landoltCL.png,landoltCBottom.png,HinCong,b,quackR.wav,2.0,19.0,18.0,b,1.20108640668,2020_Feb_26_1123,59.966808153900004,duckFrog,True,Animal,Frog1
180,181,4,4,1244,fixationIA,distIA,528.0,targetIA,180.0,targetIA,368.0,,distIA,528.0,duck,duckFront.png,frogFront.png,landoltCL.png,landoltCTop.png,LinCong,h,ribbitR.wav,2.0,20.0,2.0,h,1.8850288628299998,2020_Feb_26_1123,59.966808153900004,duckFrog,True,Animal,Duck2
181,182,4,5,1052,fixationIA,distIA,208.0,distIA,104.0,targetIA,184.0,targetIA,distIA,208.0,frog,duckFront.png,frogFront.png,landoltCBottom.png,landoltCL.png,HinCong,b,quackL.wav,2.0,21.0,54.0,b,1.70137598806,2020_Feb_26_1123,59.966808153900004,duckFrog,True,Animal,Frog1
182,183,4,3,748,fixationIA,fixationIA,268.0,targetIA,540.0,,,,targetIA,540.0,frog,duckFront.png,frogFront.png,landoltCBottom.png,landoltCL.png,Hcong,b,ribbitR.wav,2.0,22.0,68.0,b,0.984288560881,2020_Feb_26_1123,59.966808153900004,duckFrog,True,Animal,Duck1
183,184,4,5,456,fixationIA,fixationIA,756.0,targetIA,228.0,targetIA,264.0,distIA,targetIA,228.0,frog,duckFront.png,frogFront.png,landoltCTop.png,landoltCR.png,HcongWN,h,wnR.wav,2.0,23.0,77.0,h,1.28471420884,2020_Feb_26_1123,59.966808153900004,duckFrog,True,White Noise,Duck1
184,185,4,2,1076,fixationIA,targetIA,416.0,,,,,,targetIA,416.0,frog,duckFront.png,frogFront.png,landoltCBottom.png,landoltCL.png,HinCong,b,quackL.wav,2.0,24.0,38.0,b,1.0343953027600001,2020_Feb_26_1123,59.966808153900004,duckFrog,True,Animal,Frog1
185,186,4,4,1360,fixationIA,targetIA,380.0,targetIA,88.0,distIA,324.0,,targetIA,380.0,frog,duckFront.png,frogFront.png,landoltCTop.png,landoltCR.png,HcongWN,h,wnR.wav,2.0,25.0,29.0,h,1.6828600083,2020_Feb_26_1123,59.966808153900004,duckFrog,True,White Noise,Duck1
186,187,4,5,1796,fixationIA,distIA,192.0,distIA,176.0,targetIA,180.0,targetIA,distIA,192.0,frog,frogFront.png,duckFront.png,landoltCR.png,landoltCBottom.png,HinCongWN,b,wnR.wav,2.0,26.0,19.0,b,2.30170933653,2020_Feb_26_1123,59.966808153900004,duckFrog,True,White Noise,Frog1
187,188,4,3,1060,fixationIA,targetIA,156.0,targetIA,516.0,,,,targetIA,156.0,frog,frogFront.png,duckFront.png,landoltCR.png,landoltCTop.png,Hcong,h,ribbitL.wav,2.0,27.0,40.0,h,1.21803681423,2020_Feb_26_1123,59.966808153900004,duckFrog,True,Animal,Duck1
188,189,4,4,1036,fixationIA,targetIA,184.0,targetIA,160.0,targetIA,232.0,,targetIA,184.0,frog,duckFront.png,frogFront.png,landoltCTop.png,landoltCL.png,Hcong,h,ribbitR.wav,2.0,28.0,44.0,h,1.01764027102,2020_Feb_26_1123,59.966808153900004,duckFrog,True,Animal,Duck1
189,190,4,2,1184,fixationIA,targetIA,492.0,,,,,,targetIA,492.0,frog,duckFront.png,frogFront.png,landoltCBottom.png,landoltCL.png,Hcong,b,ribbitR.wav,2.0,29.0,36.0,b,1.06778806749,2020_Feb_26_1123,59.966808153900004,duckFrog,True,Animal,Duck1
190,191,4,4,1068,fixationIA,distIA,412.0,targetIA,388.0,targetIA,240.0,,distIA,412.0,frog,duckFront.png,frogFront.png,landoltCTop.png,landoltCR.png,HinCongWN,h,wnL.wav,2.0,30.0,63.0,h,1.7348438973099998,2020_Feb_26_1123,59.966808153900004,duckFrog,True,White Noise,Frog1
191,192,4,5,948,fixationIA,distIA,452.0,targetIA,192.0,targetIA,184.0,targetIA,distIA,452.0,duck,frogFront.png,duckFront.png,landoltCBottom.png,landoltCR.png,Lcong,b,quackR.wav,2.0,31.0,12.0,b,1.66818702998,2020_Feb_26_1123,59.966808153900004,duckFrog,True,Animal,Frog2
192,193,4,3,1084,fixationIA,targetIA,252.0,targetIA,280.0,,,,targetIA,252.0,frog,frogFront.png,duckFront.png,landoltCR.png,landoltCTop.png,Hcong,h,ribbitL.wav,2.0,32.0,56.0,h,1.0008133937700001,2020_Feb_26_1123,59.966808153900004,duckFrog,True,Animal,Duck1
193,194,4,4,340,fixationIA,targetIA,224.0,targetIA,364.0,fixationIA,236.0,,targetIA,224.0,frog,duckFront.png,frogFront.png,landoltCBottom.png,landoltCR.png,HinCongWN,b,wnL.wav,2.0,33.0,71.0,b,0.984259969293,2020_Feb_26_1123,59.966808153900004,duckFrog,True,White Noise,Frog1
194,195,4,3,1228,fixationIA,targetIA,232.0,targetIA,352.0,,,,targetIA,232.0,frog,duckFront.png,frogFront.png,landoltCTop.png,landoltCR.png,HcongWN,h,wnR.wav,2.0,34.0,61.0,h,1.23447440614,2020_Feb_26_1123,59.966808153900004,duckFrog,True,White Noise,Duck1
195,196,4,2,1144,fixationIA,targetIA,1052.0,,,,,,targetIA,1052.0,frog,duckFront.png,frogFront.png,landoltCTop.png,landoltCL.png,Hcong,h,ribbitR.wav,2.0,35.0,76.0,h,1.7517840412,2020_Feb_26_1123,59.966808153900004,duckFrog,True,Animal,Duck1
196,197,4,4,1156,fixationIA,targetIA,164.0,targetIA,172.0,targetIA,360.0,,targetIA,164.0,frog,frogFront.png,duckFront.png,landoltCL.png,landoltCTop.png,HinCongWN,h,wnR.wav,2.0,36.0,43.0,h,1.2510795153799998,2020_Feb_26_1123,59.966808153900004,duckFrog,True,White Noise,Frog1
197,198,4,3,1120,fixationIA,targetIA,216.0,targetIA,400.0,,,,targetIA,216.0,frog,duckFront.png,frogFront.png,landoltCBottom.png,landoltCR.png,HcongWN,b,wnR.wav,2.0,37.0,37.0,b,1.1008029101799999,2020_Feb_26_1123,59.966808153900004,duckFrog,True,White Noise,Duck1
198,199,4,2,1008,fixationIA,targetIA,448.0,,,,,,targetIA,448.0,frog,duckFront.png,frogFront.png,landoltCBottom.png,landoltCL.png,Hcong,b,ribbitR.wav,2.0,38.0,20.0,b,0.900904153692,2020_Feb_26_1123,59.966808153900004,duckFrog,True,Animal,Duck1
199,200,4,4,1244,fixationIA,targetIA,244.0,targetIA,160.0,distIA,152.0,,targetIA,244.0,frog,duckFront.png,frogFront.png,landoltCTop.png,landoltCR.png,HinCongWN,h,wnL.wav,2.0,39.0,79.0,h,1.45135949292,2020_Feb_26_1123,59.966808153900004,duckFrog,True,White Noise,Frog1
200,201,4,6,1012,fixationIA,targetIA,224.0,targetIA,1496.0,targetIA,312.0,targetIA,targetIA,224.0,,,,,,,,,,,,,,,,,,,
201,202,4,3,936,fixationIA,targetIA,208.0,targetIA,396.0,,,,targetIA,208.0,frog,duckFront.png,frogFront.png,landoltCBottom.png,landoltCR.png,HcongWN,b,wnR.wav,2.0,41.0,69.0,b,0.9673454845180001,2020_Feb_26_1123,59.966808153900004,duckFrog,True,White Noise,Duck1
202,203,4,2,1212,fixationIA,targetIA,340.0,,,,,,targetIA,340.0,frog,frogFront.png,duckFront.png,landoltCL.png,landoltCTop.png,HcongWN,h,wnL.wav,2.0,42.0,73.0,h,0.91730802221,2020_Feb_26_1123,59.966808153900004,duckFrog,True,White Noise,Duck1
203,204,4,3,144,fixationIA,fixationIA,1156.0,targetIA,364.0,,,,targetIA,364.0,frog,frogFront.png,duckFront.png,landoltCL.png,landoltCBottom.png,HinCong,b,quackR.wav,2.0,43.0,34.0,b,1.05116059816,2020_Feb_26_1123,59.966808153900004,duckFrog,True,Animal,Frog1
204,205,4,6,1228,fixationIA,distIA,200.0,distIA,220.0,targetIA,200.0,targetIA,distIA,200.0,duck,frogFront.png,duckFront.png,landoltCBottom.png,landoltCL.png,LinCongWN,b,wnL.wav,2.0,44.0,15.0,b,1.8345405333200002,2020_Feb_26_1123,59.966808153900004,duckFrog,True,White Noise,Duck2
205,206,4,3,1116,fixationIA,targetIA,220.0,targetIA,276.0,,,,targetIA,220.0,frog,frogFront.png,duckFront.png,landoltCL.png,landoltCTop.png,HcongWN,h,wnL.wav,2.0,45.0,57.0,h,1.00094902048,2020_Feb_26_1123,59.966808153900004,duckFrog,True,White Noise,Duck1
206,207,4,2,1132,fixationIA,targetIA,336.0,,,,,,targetIA,336.0,frog,frogFront.png,duckFront.png,landoltCL.png,landoltCBottom.png,Hcong,b,ribbitL.wav,2.0,46.0,16.0,b,0.884255057405,2020_Feb_26_1123,59.966808153900004,duckFrog,True,Animal,Duck1
207,208,4,2,1132,fixationIA,targetIA,528.0,,,,,,targetIA,528.0,frog,frogFront.png,duckFront.png,landoltCR.png,landoltCTop.png,HinCong,h,quackR.wav,2.0,47.0,74.0,h,1.0343513157100002,2020_Feb_26_1123,59.966808153900004,duckFrog,True,Animal,Frog1
208,209,4,2,1348,fixationIA,targetIA,740.0,,,,,,targetIA,740.0,frog,duckFront.png,frogFront.png,landoltCBottom.png,landoltCL.png,Hcong,b,ribbitR.wav,2.0,48.0,52.0,b,1.44915134329,2020_Feb_26_1123,59.966808153900004,duckFrog,True,Animal,Duck1
209,210,4,2,1144,fixationIA,targetIA,480.0,,,,,,targetIA,480.0,frog,frogFront.png,duckFront.png,landoltCL.png,landoltCTop.png,HcongWN,h,wnL.wav,2.0,49.0,25.0,h,1.01733822664,2020_Feb_26_1123,59.966808153900004,duckFrog,True,White Noise,Duck1
210,211,4,3,1352,fixationIA,targetIA,260.0,targetIA,460.0,,,,targetIA,260.0,frog,duckFront.png,frogFront.png,landoltCTop.png,landoltCL.png,Hcong,h,ribbitR.wav,2.0,50.0,60.0,h,1.4677732585299998,2020_Feb_26_1123,59.966808153900004,duckFrog,True,Animal,Duck1
211,212,4,3,1200,fixationIA,distIA,460.0,targetIA,512.0,,,,distIA,460.0,duck,frogFront.png,duckFront.png,landoltCTop.png,landoltCR.png,LinCong,h,ribbitL.wav,2.0,51.0,6.0,h,1.6850916176800002,2020_Feb_26_1123,59.966808153900004,duckFrog,True,Animal,Duck2
212,213,4,3,948,fixationIA,targetIA,204.0,targetIA,328.0,,,,targetIA,204.0,frog,frogFront.png,duckFront.png,landoltCL.png,landoltCTop.png,HinCongWN,h,wnR.wav,2.0,52.0,59.0,h,0.867266527755,2020_Feb_26_1123,59.966808153900004,duckFrog,True,White Noise,Frog1
213,214,4,2,892,fixationIA,targetIA,468.0,,,,,,targetIA,468.0,frog,frogFront.png,duckFront.png,landoltCR.png,landoltCBottom.png,HcongWN,b,wnL.wav,2.0,53.0,33.0,b,0.8675722377230001,2020_Feb_26_1123,59.966808153900004,duckFrog,True,White Noise,Duck1
214,215,4,2,1096,fixationIA,targetIA,572.0,,,,,,targetIA,572.0,frog,duckFront.png,frogFront.png,landoltCTop.png,landoltCR.png,HinCongWN,h,wnL.wav,2.0,54.0,31.0,h,1.0173829468100002,2020_Feb_26_1123,59.966808153900004,duckFrog,True,White Noise,Frog1
215,216,4,4,928,fixationIA,distIA,272.0,distIA,220.0,targetIA,512.0,,distIA,272.0,duck,frogFront.png,duckFront.png,landoltCTop.png,landoltCL.png,LinCongWN,h,wnL.wav,2.0,55.0,7.0,h,1.53474939847,2020_Feb_26_1123,59.966808153900004,duckFrog,True,White Noise,Duck2
216,217,4,4,1008,fixationIA,targetIA,188.0,targetIA,184.0,targetIA,264.0,,targetIA,188.0,duck,frogFront.png,duckFront.png,landoltCBottom.png,landoltCR.png,LinCong,b,ribbitL.wav,2.0,56.0,14.0,b,1.0512712989,2020_Feb_26_1123,59.966808153900004,duckFrog,True,Animal,Duck2
217,218,4,3,952,fixationIA,targetIA,196.0,targetIA,320.0,,,,targetIA,196.0,frog,duckFront.png,frogFront.png,landoltCBottom.png,landoltCL.png,HinCong,b,quackL.wav,2.0,57.0,22.0,b,0.9010291502200002,2020_Feb_26_1123,59.966808153900004,duckFrog,True,Animal,Frog1
218,219,4,2,768,fixationIA,targetIA,336.0,,,,,,targetIA,336.0,frog,duckFront.png,frogFront.png,landoltCBottom.png,landoltCL.png,HinCong,b,quackL.wav,2.0,58.0,70.0,b,0.650886925447,2020_Feb_26_1123,59.966808153900004,duckFrog,True,Animal,Frog1
219,220,4,3,1296,fixationIA,targetIA,256.0,targetIA,312.0,,,,targetIA,256.0,frog,frogFront.png,duckFront.png,landoltCL.png,landoltCTop.png,HinCongWN,h,wnR.wav,2.0,59.0,27.0,h,1.2844282930600002,2020_Feb_26_1123,59.966808153900004,duckFrog,True,White Noise,Frog1
220,221,4,3,984,fixationIA,targetIA,180.0,targetIA,216.0,,,,targetIA,180.0,frog,frogFront.png,duckFront.png,landoltCR.png,landoltCTop.png,HinCong,h,quackR.wav,2.0,60.0,58.0,h,0.9342972849700001,2020_Feb_26_1123,59.966808153900004,duckFrog,True,Animal,Frog1
221,222,4,2,904,fixationIA,targetIA,392.0,,,,,,targetIA,392.0,frog,frogFront.png,duckFront.png,landoltCL.png,landoltCTop.png,HinCongWN,h,wnR.wav,2.0,61.0,75.0,h,0.674696379428,2020_Feb_26_1123,59.966808153900004,duckFrog,True,White Noise,Frog1
222,223,4,2,1208,fixationIA,targetIA,348.0,,,,,,targetIA,348.0,frog,frogFront.png,duckFront.png,landoltCR.png,landoltCTop.png,HinCong,h,quackR.wav,2.0,62.0,42.0,h,0.967611239583,2020_Feb_26_1123,59.966808153900004,duckFrog,True,Animal,Frog1
223,224,4,3,904,fixationIA,targetIA,232.0,targetIA,248.0,,,,targetIA,232.0,frog,frogFront.png,duckFront.png,landoltCR.png,landoltCBottom.png,HcongWN,b,wnL.wav,2.0,63.0,17.0,b,0.8008622193739999,2020_Feb_26_1123,59.966808153900004,duckFrog,True,White Noise,Duck1
224,225,4,2,1088,fixationIA,targetIA,360.0,,,,,,targetIA,360.0,frog,frogFront.png,duckFront.png,landoltCR.png,landoltCBottom.png,HcongWN,b,wnL.wav,2.0,64.0,49.0,b,0.834326463053,2020_Feb_26_1123,59.966808153900004,duckFrog,True,White Noise,Duck1
225,226,4,4,1140,fixationIA,targetIA,176.0,targetIA,188.0,targetIA,424.0,,targetIA,176.0,duck,duckFront.png,frogFront.png,landoltCR.png,landoltCBottom.png,Lcong,b,quackL.wav,2.0,65.0,8.0,b,1.31796951404,2020_Feb_26_1123,59.966808153900004,duckFrog,True,Animal,Frog2
226,227,4,3,1356,fixationIA,targetIA,244.0,targetIA,440.0,,,,targetIA,244.0,frog,duckFront.png,frogFront.png,landoltCTop.png,landoltCL.png,HinCong,h,quackL.wav,2.0,66.0,78.0,h,1.65104857783,2020_Feb_26_1123,59.966808153900004,duckFrog,True,Animal,Frog1
227,228,4,3,1264,fixationIA,targetIA,196.0,targetIA,328.0,,,,targetIA,196.0,frog,duckFront.png,frogFront.png,landoltCTop.png,landoltCL.png,HinCong,h,quackL.wav,2.0,67.0,30.0,h,1.1678153394600002,2020_Feb_26_1123,59.966808153900004,duckFrog,True,Animal,Frog1
228,229,4,4,1292,fixationIA,distIA,304.0,targetIA,256.0,targetIA,352.0,,distIA,304.0,duck,duckFront.png,frogFront.png,landoltCL.png,landoltCBottom.png,LcongWN,b,wnL.wav,2.0,68.0,9.0,b,1.73466428355,2020_Feb_26_1123,59.966808153900004,duckFrog,True,White Noise,Frog2
229,230,4,4,1556,fixationIA,distIA,408.0,targetIA,144.0,targetIA,388.0,,distIA,408.0,duck,duckFront.png,frogFront.png,landoltCL.png,landoltCBottom.png,LinCongWN,b,wnR.wav,2.0,69.0,11.0,b,2.10189048985,2020_Feb_26_1123,59.966808153900004,duckFrog,True,White Noise,Duck2
230,231,4,3,1200,fixationIA,targetIA,180.0,targetIA,328.0,,,,targetIA,180.0,frog,frogFront.png,duckFront.png,landoltCR.png,landoltCBottom.png,HinCongWN,b,wnR.wav,2.0,70.0,67.0,b,1.1177382888299998,2020_Feb_26_1123,59.966808153900004,duckFrog,True,White Noise,Frog1
231,232,4,2,1052,fixationIA,targetIA,640.0,,,,,,targetIA,640.0,duck,duckFront.png,frogFront.png,landoltCL.png,landoltCTop.png,Lcong,h,quackL.wav,2.0,71.0,0.0,h,1.06769239566,2020_Feb_26_1123,59.966808153900004,duckFrog,True,Animal,Frog2
232,233,4,2,1112,fixationIA,targetIA,536.0,,,,,,targetIA,536.0,frog,frogFront.png,duckFront.png,landoltCR.png,landoltCBottom.png,HcongWN,b,wnL.wav,2.0,72.0,65.0,b,1.13461355183,2020_Feb_26_1123,59.966808153900004,duckFrog,True,White Noise,Duck1
233,234,4,2,956,fixationIA,targetIA,420.0,,,,,,targetIA,420.0,frog,frogFront.png,duckFront.png,landoltCL.png,landoltCBottom.png,Hcong,b,ribbitL.wav,2.0,73.0,48.0,b,0.7508225577330001,2020_Feb_26_1123,59.966808153900004,duckFrog,True,Animal,Duck1
234,235,4,7,268,fixationIA,fixationIA,152.0,fixationIA,600.0,distIA,456.0,distIA,distIA,456.0,frog,duckFront.png,frogFront.png,landoltCBottom.png,landoltCR.png,HinCongWN,b,wnL.wav,2.0,74.0,55.0,b,1.9681962672599997,2020_Feb_26_1123,59.966808153900004,duckFrog,True,White Noise,Frog1
235,236,4,5,1276,fixationIA,distIA,280.0,distIA,212.0,targetIA,136.0,targetIA,distIA,280.0,frog,frogFront.png,duckFront.png,landoltCR.png,landoltCBottom.png,HinCongWN,b,wnR.wav,2.0,75.0,35.0,b,2.13497021345,2020_Feb_26_1123,59.966808153900004,duckFrog,True,White Noise,Frog1
236,237,4,2,1136,fixationIA,targetIA,356.0,,,,,,targetIA,356.0,frog,duckFront.png,frogFront.png,landoltCBottom.png,landoltCR.png,HinCongWN,b,wnL.wav,2.0,76.0,39.0,b,1.06753624167,2020_Feb_26_1123,59.966808153900004,duckFrog,True,White Noise,Frog1
237,238,4,9,264,fixationIA,fixationIA,756.0,targetIA,296.0,distIA,204.0,distIA,targetIA,296.0,,,,,,,,,,,,,,,,,,,
238,239,4,2,1132,fixationIA,targetIA,844.0,,,,,,targetIA,844.0,frog,duckFront.png,frogFront.png,landoltCBottom.png,landoltCR.png,HcongWN,b,wnR.wav,2.0,78.0,53.0,b,1.4511329596399998,2020_Feb_26_1123,59.966808153900004,duckFrog,True,White Noise,Duck1
239,240,4,5,1176,fixationIA,distIA,168.0,distIA,228.0,distIA,116.0,targetIA,distIA,168.0,duck,frogFront.png,duckFront.png,landoltCTop.png,landoltCR.png,Lcong,h,quackR.wav,2.0,79.0,4.0,h,2.0352702784,2020_Feb_26_1123,59.966808153900004,duckFrog,True,Animal,Frog2
240,241,4,3,1112,fixationIA,targetIA,244.0,targetIA,452.0,,,,targetIA,244.0,frog,duckFront.png,frogFront.png,landoltCTop.png,landoltCL.png,HinCong,h,quackL.wav,3.0,0.0,62.0,h,1.3514927736500002,2020_Feb_26_1123,59.966808153900004,duckFrog,True,Animal,Frog1
241,242,4,2,1116,fixationIA,targetIA,568.0,,,,,,targetIA,568.0,frog,frogFront.png,duckFront.png,landoltCR.png,landoltCTop.png,Hcong,h,ribbitL.wav,3.0,1.0,40.0,h,1.21752179923,2020_Feb_26_1123,59.966808153900004,duckFrog,True,Animal,Duck1
242,243,4,4,1052,fixationIA,distIA,472.0,targetIA,176.0,targetIA,368.0,,distIA,472.0,duck,frogFront.png,duckFront.png,landoltCTop.png,landoltCR.png,LinCong,h,ribbitL.wav,3.0,2.0,6.0,h,1.60118229843,2020_Feb_26_1123,59.966808153900004,duckFrog,True,Animal,Duck2
243,244,4,4,1212,fixationIA,targetIA,304.0,targetIA,368.0,distIA,80.0,,targetIA,304.0,duck,frogFront.png,duckFront.png,landoltCBottom.png,landoltCR.png,Lcong,b,quackR.wav,3.0,3.0,12.0,b,1.5682854876499999,2020_Feb_26_1123,59.966808153900004,duckFrog,True,Animal,Frog2
244,245,4,3,1312,fixationIA,targetIA,124.0,targetIA,604.0,,,,targetIA,124.0,duck,frogFront.png,duckFront.png,landoltCBottom.png,landoltCR.png,LinCong,b,ribbitL.wav,3.0,4.0,14.0,b,1.45143317123,2020_Feb_26_1123,59.966808153900004,duckFrog,True,Animal,Duck2
245,246,4,2,756,fixationIA,targetIA,668.0,,,,,,targetIA,668.0,frog,duckFront.png,frogFront.png,landoltCBottom.png,landoltCR.png,HcongWN,b,wnR.wav,3.0,5.0,37.0,b,0.984485769455,2020_Feb_26_1123,59.966808153900004,duckFrog,True,White Noise,Duck1
246,247,4,2,1704,fixationIA,targetIA,996.0,,,,,,targetIA,996.0,frog,frogFront.png,duckFront.png,landoltCR.png,landoltCTop.png,HinCong,h,quackR.wav,3.0,6.0,42.0,h,2.09295525492,2020_Feb_26_1123,59.966808153900004,duckFrog,True,Animal,Frog1
247,248,4,6,436,fixationIA,targetIA,160.0,fixationIA,364.0,targetIA,208.0,targetIA,targetIA,160.0,frog,duckFront.png,frogFront.png,landoltCBottom.png,landoltCR.png,HcongWN,b,wnR.wav,3.0,7.0,53.0,b,1.51789282997,2020_Feb_26_1123,59.966808153900004,duckFrog,True,White Noise,Duck1
248,249,4,2,1072,fixationIA,targetIA,532.0,,,,,,targetIA,532.0,frog,frogFront.png,duckFront.png,landoltCR.png,landoltCBottom.png,HinCongWN,b,wnR.wav,3.0,8.0,51.0,b,0.983897442726,2020_Feb_26_1123,59.966808153900004,duckFrog,True,White Noise,Frog1
249,250,4,4,1276,fixationIA,distIA,528.0,targetIA,132.0,targetIA,212.0,,distIA,528.0,duck,duckFront.png,frogFront.png,landoltCL.png,landoltCBottom.png,LinCongWN,b,wnR.wav,3.0,9.0,11.0,b,1.7682128357099998,2020_Feb_26_1123,59.966808153900004,duckFrog,True,White Noise,Duck2
250,251,4,2,1144,fixationIA,targetIA,928.0,,,,,,targetIA,928.0,frog,frogFront.png,duckFront.png,landoltCR.png,landoltCBottom.png,HcongWN,b,wnL.wav,3.0,10.0,49.0,b,1.45152884304,2020_Feb_26_1123,59.966808153900004,duckFrog,True,White Noise,Duck1
251,252,4,2,1380,fixationIA,targetIA,624.0,,,,,,targetIA,624.0,frog,frogFront.png,duckFront.png,landoltCL.png,landoltCBottom.png,HinCong,b,quackR.wav,3.0,11.0,34.0,b,1.38460695377,2020_Feb_26_1123,59.966808153900004,duckFrog,True,Animal,Frog1
252,253,4,3,1452,fixationIA,distIA,492.0,targetIA,720.0,,,,distIA,492.0,duck,duckFront.png,frogFront.png,landoltCR.png,landoltCTop.png,LcongWN,h,wnL.wav,3.0,12.0,1.0,h,2.23543662272,2020_Feb_26_1123,59.966808153900004,duckFrog,True,White Noise,Frog2
253,254,4,4,1128,fixationIA,distIA,444.0,targetIA,176.0,targetIA,384.0,,distIA,444.0,frog,duckFront.png,frogFront.png,landoltCBottom.png,landoltCR.png,HinCongWN,b,wnL.wav,3.0,13.0,71.0,b,1.81790170069,2020_Feb_26_1123,59.966808153900004,duckFrog,True,White Noise,Frog1
254,255,4,2,1092,fixationIA,targetIA,536.0,,,,,,targetIA,536.0,frog,frogFront.png,duckFront.png,landoltCL.png,landoltCBottom.png,HinCong,b,quackR.wav,3.0,14.0,50.0,b,1.16730692254,2020_Feb_26_1123,59.966808153900004,duckFrog,True,Animal,Frog1
255,256,4,3,1032,fixationIA,targetIA,280.0,targetIA,376.0,,,,targetIA,280.0,frog,frogFront.png,duckFront.png,landoltCR.png,landoltCTop.png,HinCong,h,quackR.wav,3.0,15.0,58.0,h,1.11778447521,2020_Feb_26_1123,59.966808153900004,duckFrog,True,Animal,Frog1
256,257,4,3,1152,fixationIA,targetIA,252.0,targetIA,240.0,,,,targetIA,252.0,frog,frogFront.png,duckFront.png,landoltCL.png,landoltCBottom.png,Hcong,b,ribbitL.wav,3.0,16.0,16.0,b,1.18445783768,2020_Feb_26_1123,59.966808153900004,duckFrog,True,Animal,Duck1
257,258,4,3,1240,fixationIA,distIA,200.0,distIA,200.0,,,,distIA,200.0,,,,,,,,,,,,,,,,,,,
258,259,4,5,1904,fixationIA,distIA,200.0,distIA,152.0,targetIA,168.0,targetIA,distIA,200.0,frog,frogFront.png,duckFront.png,landoltCR.png,landoltCBottom.png,HinCongWN,b,wnR.wav,3.0,18.0,67.0,b,2.66917783815,2020_Feb_26_1123,59.966808153900004,duckFrog,True,White Noise,Frog1
259,260,4,6,1416,fixationIA,distIA,164.0,distIA,172.0,distIA,136.0,targetIA,distIA,164.0,,,,,,,,,,,,,,,,,,,
260,261,4,5,1596,fixationIA,distIA,256.0,distIA,264.0,targetIA,176.0,targetIA,distIA,256.0,duck,frogFront.png,duckFront.png,landoltCTop.png,landoltCL.png,LinCongWN,h,wnL.wav,3.0,20.0,7.0,h,2.3689673601499996,2020_Feb_26_1123,59.966808153900004,duckFrog,True,White Noise,Duck2
261,262,4,4,1664,fixationIA,targetIA,200.0,targetIA,160.0,targetIA,292.0,,targetIA,200.0,duck,frogFront.png,duckFront.png,landoltCBottom.png,landoltCL.png,LinCongWN,b,wnL.wav,3.0,21.0,15.0,b,1.7517682791799998,2020_Feb_26_1123,59.966808153900004,duckFrog,True,White Noise,Duck2
262,263,4,5,1280,fixationIA,distIA,224.0,distIA,164.0,targetIA,144.0,targetIA,distIA,224.0,duck,duckFront.png,frogFront.png,landoltCR.png,landoltCTop.png,LinCongWN,h,wnR.wav,3.0,22.0,3.0,h,1.7846449292400002,2020_Feb_26_1123,59.966808153900004,duckFrog,True,White Noise,Duck2
263,264,4,5,1444,fixationIA,distIA,180.0,distIA,160.0,targetIA,188.0,targetIA,distIA,180.0,,,,,,,,,,,,,,,,,,,
264,265,4,3,972,fixationIA,targetIA,184.0,targetIA,408.0,,,,targetIA,184.0,frog,frogFront.png,duckFront.png,landoltCL.png,landoltCTop.png,HcongWN,h,wnL.wav,3.0,24.0,73.0,h,1.08444302871,2020_Feb_26_1123,59.966808153900004,duckFrog,True,White Noise,Duck1
265,266,4,5,1360,fixationIA,distIA,192.0,distIA,176.0,targetIA,196.0,targetIA,distIA,192.0,frog,frogFront.png,duckFront.png,landoltCR.png,landoltCTop.png,HinCong,h,quackR.wav,3.0,25.0,26.0,h,1.8517687923599997,2020_Feb_26_1123,59.966808153900004,duckFrog,True,Animal,Frog1
266,267,4,2,1352,fixationIA,targetIA,592.0,,,,,,targetIA,592.0,frog,frogFront.png,duckFront.png,landoltCL.png,landoltCBottom.png,Hcong,b,ribbitL.wav,3.0,26.0,32.0,b,1.4346579787399998,2020_Feb_26_1123,59.966808153900004,duckFrog,True,Animal,Duck1
267,268,4,8,1448,fixationIA,targetIA,184.0,targetIA,192.0,targetIA,312.0,distIA,targetIA,184.0,,,,,,,,,,,,,,,,,,,
268,269,4,4,988,fixationIA,distIA,216.0,distIA,196.0,targetIA,680.0,,distIA,216.0,duck,frogFront.png,duckFront.png,landoltCTop.png,landoltCR.png,Lcong,h,quackR.wav,3.0,28.0,4.0,h,1.60117899941,2020_Feb_26_1123,59.966808153900004,duckFrog,True,Animal,Frog2
269,270,4,4,904,fixationIA,distIA,292.0,targetIA,272.0,targetIA,336.0,,distIA,292.0,duck,duckFront.png,frogFront.png,landoltCR.png,landoltCBottom.png,LinCong,b,ribbitR.wav,3.0,29.0,10.0,b,1.4345216188999999,2020_Feb_26_1123,59.966808153900004,duckFrog,True,Animal,Duck2
270,271,4,5,860,fixationIA,targetIA,176.0,targetIA,648.0,fixationIA,76.0,distIA,targetIA,176.0,,,,,,,,,,,,,,,,,,,
271,272,4,9,1384,fixationIA,distIA,260.0,targetIA,196.0,targetIA,320.0,targetIA,distIA,260.0,,,,,,,,,,,,,,,,,,,
272,273,4,2,1372,fixationIA,targetIA,768.0,,,,,,targetIA,768.0,frog,duckFront.png,frogFront.png,landoltCBottom.png,landoltCL.png,Hcong,b,ribbitR.wav,3.0,32.0,52.0,b,1.53449060803,2020_Feb_26_1123,59.966808153900004,duckFrog,True,Animal,Duck1
273,274,4,5,1872,fixationIA,distIA,212.0,distIA,168.0,targetIA,148.0,targetIA,distIA,212.0,frog,duckFront.png,frogFront.png,landoltCBottom.png,landoltCR.png,HinCongWN,b,wnL.wav,3.0,33.0,23.0,b,2.43551829201,2020_Feb_26_1123,59.966808153900004,duckFrog,True,White Noise,Frog1
274,275,4,5,1064,fixationIA,distIA,248.0,distIA,160.0,targetIA,268.0,targetIA,distIA,248.0,frog,duckFront.png,frogFront.png,landoltCTop.png,landoltCL.png,Hcong,h,ribbitR.wav,3.0,34.0,44.0,h,1.8517086767400002,2020_Feb_26_1123,59.966808153900004,duckFrog,True,Animal,Duck1
275,276,4,5,1460,fixationIA,distIA,240.0,distIA,152.0,targetIA,184.0,targetIA,distIA,240.0,duck,duckFront.png,frogFront.png,landoltCL.png,landoltCBottom.png,LcongWN,b,wnL.wav,3.0,35.0,9.0,b,2.50216269634,2020_Feb_26_1123,59.966808153900004,duckFrog,True,White Noise,Frog2
276,277,4,3,880,fixationIA,targetIA,436.0,targetIA,376.0,,,,targetIA,436.0,frog,frogFront.png,duckFront.png,landoltCL.png,landoltCTop.png,HcongWN,h,wnL.wav,3.0,36.0,25.0,h,1.25116492355,2020_Feb_26_1123,59.966808153900004,duckFrog,True,White Noise,Duck1
277,278,4,5,1372,fixationIA,distIA,520.0,targetIA,180.0,targetIA,152.0,targetIA,distIA,520.0,frog,duckFront.png,frogFront.png,landoltCTop.png,landoltCR.png,HinCongWN,h,wnL.wav,3.0,37.0,79.0,h,2.33518384385,2020_Feb_26_1123,59.966808153900004,duckFrog,True,White Noise,Frog1
278,279,4,6,1140,fixationIA,distIA,244.0,distIA,308.0,targetIA,200.0,targetIA,distIA,244.0,frog,frogFront.png,duckFront.png,landoltCL.png,landoltCTop.png,HcongWN,h,wnL.wav,3.0,38.0,57.0,h,2.01798080406,2020_Feb_26_1123,59.966808153900004,duckFrog,True,White Noise,Duck1
279,280,4,4,1344,fixationIA,targetIA,152.0,targetIA,172.0,targetIA,268.0,,targetIA,152.0,frog,frogFront.png,duckFront.png,landoltCL.png,landoltCTop.png,HinCongWN,h,wnR.wav,3.0,39.0,59.0,h,1.35147041357,2020_Feb_26_1123,59.966808153900004,duckFrog,True,White Noise,Frog1
280,281,4,3,1372,fixationIA,targetIA,240.0,targetIA,300.0,,,,targetIA,240.0,frog,duckFront.png,frogFront.png,landoltCBottom.png,landoltCL.png,Hcong,b,ribbitR.wav,3.0,40.0,20.0,b,1.2845496239799998,2020_Feb_26_1123,59.966808153900004,duckFrog,True,Animal,Duck1
281,282,4,2,1288,fixationIA,targetIA,804.0,,,,,,targetIA,804.0,frog,frogFront.png,duckFront.png,landoltCR.png,landoltCTop.png,Hcong,h,ribbitL.wav,3.0,41.0,56.0,h,1.4678066153600002,2020_Feb_26_1123,59.966808153900004,duckFrog,True,Animal,Duck1
282,283,4,4,1240,fixationIA,targetIA,172.0,targetIA,160.0,targetIA,356.0,,targetIA,172.0,frog,frogFront.png,duckFront.png,landoltCL.png,landoltCTop.png,HinCongWN,h,wnR.wav,3.0,42.0,43.0,h,1.35151146815,2020_Feb_26_1123,59.966808153900004,duckFrog,True,White Noise,Frog1
283,284,4,2,1152,fixationIA,targetIA,540.0,,,,,,targetIA,540.0,frog,duckFront.png,frogFront.png,landoltCTop.png,landoltCR.png,HcongWN,h,wnR.wav,3.0,43.0,45.0,h,1.1676097000299999,2020_Feb_26_1123,59.966808153900004,duckFrog,True,White Noise,Duck1
284,285,4,2,1112,fixationIA,targetIA,512.0,,,,,,targetIA,512.0,frog,frogFront.png,duckFront.png,landoltCL.png,landoltCTop.png,HinCongWN,h,wnR.wav,3.0,44.0,27.0,h,1.0006854647799999,2020_Feb_26_1123,59.966808153900004,duckFrog,True,White Noise,Frog1
285,286,4,4,1120,fixationIA,distIA,420.0,targetIA,244.0,targetIA,276.0,,distIA,420.0,duck,duckFront.png,frogFront.png,landoltCR.png,landoltCBottom.png,Lcong,b,quackL.wav,3.0,45.0,8.0,b,1.56820227882,2020_Feb_26_1123,59.966808153900004,duckFrog,True,Animal,Frog2
286,287,4,2,1028,fixationIA,targetIA,476.0,,,,,,targetIA,476.0,frog,frogFront.png,duckFront.png,landoltCR.png,landoltCBottom.png,HinCongWN,b,wnR.wav,3.0,46.0,35.0,b,0.9342368027860001,2020_Feb_26_1123,59.966808153900004,duckFrog,True,White Noise,Frog1
287,288,4,3,220,fixationIA,fixationIA,540.0,fixationIA,176.0,,,,,,,,,,,,,,,,,,,,,,,,
288,289,4,4,1500,fixationIA,targetIA,148.0,targetIA,276.0,distIA,44.0,,targetIA,148.0,frog,duckFront.png,frogFront.png,landoltCBottom.png,landoltCL.png,HinCong,b,quackL.wav,3.0,48.0,22.0,b,1.73492050808,2020_Feb_26_1123,59.966808153900004,duckFrog,True,Animal,Frog1
289,290,4,5,1200,fixationIA,distIA,136.0,distIA,280.0,targetIA,228.0,targetIA,distIA,136.0,frog,frogFront.png,duckFront.png,landoltCR.png,landoltCBottom.png,HinCongWN,b,wnR.wav,3.0,49.0,19.0,b,1.7513786272799998,2020_Feb_26_1123,59.966808153900004,duckFrog,True,White Noise,Frog1
290,291,4,6,1088,fixationIA,distIA,192.0,distIA,160.0,distIA,620.0,targetIA,distIA,192.0,duck,frogFront.png,duckFront.png,landoltCTop.png,landoltCL.png,LcongWN,h,wnR.wav,3.0,50.0,5.0,h,2.1683915697400002,2020_Feb_26_1123,59.966808153900004,duckFrog,True,White Noise,Frog2
291,292,4,3,1112,fixationIA,targetIA,212.0,targetIA,428.0,,,,targetIA,212.0,frog,frogFront.png,duckFront.png,landoltCL.png,landoltCBottom.png,Hcong,b,ribbitL.wav,3.0,51.0,48.0,b,1.11770309917,2020_Feb_26_1123,59.966808153900004,duckFrog,True,Animal,Duck1
292,293,4,2,1368,fixationIA,targetIA,672.0,,,,,,targetIA,672.0,frog,duckFront.png,frogFront.png,landoltCTop.png,landoltCR.png,HinCongWN,h,wnL.wav,3.0,52.0,47.0,h,1.4011127255899998,2020_Feb_26_1123,59.966808153900004,duckFrog,True,White Noise,Frog1
293,294,4,3,1124,fixationIA,targetIA,180.0,targetIA,276.0,,,,targetIA,180.0,frog,frogFront.png,duckFront.png,landoltCL.png,landoltCTop.png,HcongWN,h,wnL.wav,3.0,53.0,41.0,h,0.933997806511,2020_Feb_26_1123,59.966808153900004,duckFrog,True,White Noise,Duck1
294,295,4,2,1144,fixationIA,targetIA,544.0,,,,,,targetIA,544.0,frog,duckFront.png,frogFront.png,landoltCTop.png,landoltCL.png,Hcong,h,ribbitR.wav,3.0,54.0,76.0,h,1.05115766569,2020_Feb_26_1123,59.966808153900004,duckFrog,True,Animal,Duck1
295,296,4,3,1000,fixationIA,targetIA,184.0,targetIA,396.0,,,,targetIA,184.0,frog,frogFront.png,duckFront.png,landoltCL.png,landoltCBottom.png,Hcong,b,ribbitL.wav,3.0,55.0,64.0,b,0.934049857853,2020_Feb_26_1123,59.966808153900004,duckFrog,True,Animal,Duck1
296,297,4,2,1352,fixationIA,targetIA,752.0,,,,,,targetIA,752.0,frog,duckFront.png,frogFront.png,landoltCTop.png,landoltCR.png,HcongWN,h,wnR.wav,3.0,56.0,61.0,h,1.45098010465,2020_Feb_26_1123,59.966808153900004,duckFrog,True,White Noise,Duck1
297,298,4,3,1076,fixationIA,targetIA,332.0,distIA,160.0,,,,targetIA,332.0,,,,,,,,,,,,,,,,,,,
298,299,4,3,352,fixationIA,fixationIA,716.0,targetIA,148.0,,,,targetIA,148.0,,,,,,,,,,,,,,,,,,,
299,300,4,2,1256,fixationIA,targetIA,884.0,,,,,,targetIA,884.0,frog,duckFront.png,frogFront.png,landoltCTop.png,landoltCR.png,HcongWN,h,wnR.wav,3.0,59.0,77.0,h,1.6014795775600001,2020_Feb_26_1123,59.966808153900004,duckFrog,True,White Noise,Duck1
300,301,4,3,1368,fixationIA,targetIA,348.0,targetIA,364.0,,,,targetIA,348.0,frog,duckFront.png,frogFront.png,landoltCBottom.png,landoltCL.png,HinCong,b,quackL.wav,3.0,60.0,38.0,b,1.6347370821,2020_Feb_26_1123,59.966808153900004,duckFrog,True,Animal,Frog1
301,302,4,6,1396,fixationIA,distIA,184.0,distIA,224.0,distIA,148.0,targetIA,distIA,184.0,frog,frogFront.png,duckFront.png,landoltCR.png,landoltCBottom.png,HcongWN,b,wnL.wav,3.0,61.0,65.0,b,2.2184873148700004,2020_Feb_26_1123,59.966808153900004,duckFrog,True,White Noise,Duck1
302,303,4,3,1216,fixationIA,targetIA,248.0,targetIA,584.0,,,,targetIA,248.0,frog,duckFront.png,frogFront.png,landoltCTop.png,landoltCL.png,Hcong,h,ribbitR.wav,3.0,62.0,60.0,h,1.4344889951800002,2020_Feb_26_1123,59.966808153900004,duckFrog,True,Animal,Duck1
303,304,4,3,1120,fixationIA,targetIA,512.0,fixationIA,64.0,,,,targetIA,512.0,frog,frogFront.png,duckFront.png,landoltCL.png,landoltCBottom.png,HinCong,b,quackR.wav,3.0,63.0,18.0,b,1.16775155824,2020_Feb_26_1123,59.966808153900004,duckFrog,True,Animal,Frog1
304,305,4,3,1048,fixationIA,targetIA,164.0,targetIA,276.0,,,,targetIA,164.0,frog,frogFront.png,duckFront.png,landoltCR.png,landoltCBottom.png,HcongWN,b,wnL.wav,3.0,64.0,17.0,b,0.884304542837,2020_Feb_26_1123,59.966808153900004,duckFrog,True,White Noise,Duck1
305,306,4,4,1296,fixationIA,distIA,620.0,targetIA,208.0,targetIA,80.0,,distIA,620.0,,,,,,,,,,,,,,,,,,,
306,307,4,2,1080,fixationIA,targetIA,1008.0,,,,,,targetIA,1008.0,frog,duckFront.png,frogFront.png,landoltCBottom.png,landoltCR.png,HcongWN,b,wnR.wav,3.0,66.0,21.0,b,1.61786511813,2020_Feb_26_1123,59.966808153900004,duckFrog,True,White Noise,Duck1
307,308,4,4,1040,fixationIA,distIA,676.0,targetIA,176.0,targetIA,256.0,,distIA,676.0,frog,duckFront.png,frogFront.png,landoltCBottom.png,landoltCR.png,HinCongWN,b,wnL.wav,3.0,67.0,39.0,b,1.75159123134,2020_Feb_26_1123,59.966808153900004,duckFrog,True,White Noise,Frog1
308,309,4,4,964,fixationIA,distIA,248.0,distIA,144.0,targetIA,388.0,,distIA,248.0,frog,duckFront.png,frogFront.png,landoltCBottom.png,landoltCL.png,HinCong,b,quackL.wav,3.0,68.0,54.0,b,1.3512973978799998,2020_Feb_26_1123,59.966808153900004,duckFrog,True,Animal,Frog1
309,310,4,4,1052,fixationIA,distIA,444.0,targetIA,268.0,targetIA,496.0,,distIA,444.0,frog,duckFront.png,frogFront.png,landoltCTop.png,landoltCL.png,HinCong,h,quackL.wav,3.0,69.0,46.0,h,1.93503003582,2020_Feb_26_1123,59.966808153900004,duckFrog,True,Animal,Frog1
310,311,4,3,1288,fixationIA,targetIA,384.0,distIA,444.0,,,,targetIA,384.0,frog,duckFront.png,frogFront.png,landoltCBottom.png,landoltCR.png,HinCongWN,b,wnL.wav,3.0,70.0,55.0,b,1.8018379986500002,2020_Feb_26_1123,59.966808153900004,duckFrog,True,White Noise,Frog1
311,312,4,2,1040,fixationIA,targetIA,616.0,,,,,,targetIA,616.0,frog,duckFront.png,frogFront.png,landoltCBottom.png,landoltCR.png,HcongWN,b,wnR.wav,3.0,71.0,69.0,b,1.1513319277,2020_Feb_26_1123,59.966808153900004,duckFrog,True,White Noise,Duck1
312,313,4,2,1140,fixationIA,targetIA,768.0,,,,,,targetIA,768.0,frog,frogFront.png,duckFront.png,landoltCR.png,landoltCTop.png,HinCong,h,quackR.wav,3.0,72.0,74.0,h,1.3343019036100001,2020_Feb_26_1123,59.966808153900004,duckFrog,True,Animal,Frog1
313,314,4,2,1460,fixationIA,targetIA,412.0,,,,,,targetIA,412.0,frog,duckFront.png,frogFront.png,landoltCBottom.png,landoltCL.png,Hcong,b,ribbitR.wav,3.0,73.0,36.0,b,1.2341694293,2020_Feb_26_1123,59.966808153900004,duckFrog,True,Animal,Duck1
314,315,4,5,1244,fixationIA,distIA,188.0,distIA,168.0,targetIA,228.0,targetIA,distIA,188.0,frog,duckFront.png,frogFront.png,landoltCTop.png,landoltCR.png,HinCongWN,h,wnL.wav,3.0,74.0,63.0,h,1.8516624903299999,2020_Feb_26_1123,59.966808153900004,duckFrog,True,White Noise,Frog1
315,316,4,2,740,fixationIA,targetIA,460.0,,,,,,targetIA,460.0,frog,frogFront.png,duckFront.png,landoltCR.png,landoltCBottom.png,HcongWN,b,wnL.wav,3.0,75.0,33.0,b,0.8007493193,2020_Feb_26_1123,59.966808153900004,duckFrog,True,White Noise,Duck1
316,317,4,3,1056,fixationIA,targetIA,148.0,targetIA,352.0,,,,targetIA,148.0,frog,duckFront.png,frogFront.png,landoltCBottom.png,landoltCL.png,HinCong,b,quackL.wav,3.0,76.0,70.0,b,0.9342397352590001,2020_Feb_26_1123,59.966808153900004,duckFrog,True,Animal,Frog1
317,318,4,4,868,fixationIA,targetIA,200.0,targetIA,152.0,targetIA,272.0,,targetIA,200.0,frog,frogFront.png,duckFront.png,landoltCL.png,landoltCTop.png,HinCongWN,h,wnR.wav,3.0,77.0,75.0,h,1.10102834378,2020_Feb_26_1123,59.966808153900004,duckFrog,True,White Noise,Frog1
318,319,4,5,940,fixationIA,distIA,276.0,distIA,240.0,targetIA,280.0,targetIA,distIA,276.0,duck,frogFront.png,duckFront.png,landoltCBottom.png,landoltCL.png,LcongWN,b,wnR.wav,3.0,78.0,13.0,b,2.25174481943,2020_Feb_26_1123,59.966808153900004,duckFrog,True,White Noise,Frog2
319,320,4,4,276,fixationIA,fixationIA,788.0,targetIA,240.0,targetIA,324.0,,targetIA,240.0,frog,duckFront.png,frogFront.png,landoltCTop.png,landoltCL.png,Hcong,h,ribbitR.wav,3.0,79.0,28.0,h,1.06771438918,2020_Feb_26_1123,59.966808153900004,duckFrog,True,Animal,Duck1
320,321,4,5,1028,fixationIA,distIA,248.0,distIA,132.0,targetIA,216.0,targetIA,distIA,248.0,frog,duckFront.png,frogFront.png,landoltCTop.png,landoltCR.png,HinCongWN,h,wnL.wav,4.0,0.0,63.0,h,1.55162979331,2020_Feb_26_1123,59.966808153900004,duckFrog,True,White Noise,Frog1
321,322,4,3,960,fixationIA,targetIA,204.0,targetIA,388.0,,,,targetIA,204.0,frog,duckFront.png,frogFront.png,landoltCTop.png,landoltCR.png,HinCongWN,h,wnL.wav,4.0,1.0,79.0,h,1.01784884292,2020_Feb_26_1123,59.966808153900004,duckFrog,True,White Noise,Frog1
322,323,4,4,1140,fixationIA,distIA,380.0,targetIA,132.0,targetIA,204.0,,distIA,380.0,duck,frogFront.png,duckFront.png,landoltCBottom.png,landoltCR.png,Lcong,b,quackR.wav,4.0,2.0,12.0,b,1.38466706939,2020_Feb_26_1123,59.966808153900004,duckFrog,True,Animal,Frog2
323,324,4,2,1028,fixationIA,targetIA,668.0,,,,,,targetIA,668.0,frog,duckFront.png,frogFront.png,landoltCBottom.png,landoltCL.png,HinCong,b,quackL.wav,4.0,3.0,38.0,b,1.10108919253,2020_Feb_26_1123,59.966808153900004,duckFrog,True,Animal,Frog1
324,325,4,2,1144,fixationIA,targetIA,332.0,,,,,,targetIA,332.0,frog,frogFront.png,duckFront.png,landoltCL.png,landoltCBottom.png,HinCong,b,quackR.wav,4.0,4.0,50.0,b,0.8172814833670001,2020_Feb_26_1123,59.966808153900004,duckFrog,True,Animal,Frog1
325,326,4,2,1132,fixationIA,targetIA,232.0,,,,,,targetIA,232.0,frog,frogFront.png,duckFront.png,landoltCL.png,landoltCBottom.png,HinCong,b,quackR.wav,4.0,5.0,66.0,b,0.7676300073800001,2020_Feb_26_1123,59.966808153900004,duckFrog,True,Animal,Frog1
326,327,4,2,1336,fixationIA,targetIA,252.0,,,,,,targetIA,252.0,frog,duckFront.png,frogFront.png,landoltCBottom.png,landoltCL.png,HinCong,b,quackL.wav,4.0,6.0,54.0,b,0.950737442792,2020_Feb_26_1123,59.966808153900004,duckFrog,True,Animal,Frog1
327,328,4,12,1056,fixationIA,targetIA,392.0,fixationIA,212.0,distIA,572.0,targetIA,targetIA,392.0,,,,,,,,,,,,,,,,,,,
328,329,4,4,172,fixationIA,fixationIA,616.0,targetIA,400.0,distIA,64.0,,targetIA,400.0,,,,,,,,,,,,,,,,,,,
329,330,4,19,328,fixationIA,distIA,160.0,fixationIA,288.0,targetIA,200.0,distIA,distIA,160.0,,,,,,,,,,,,,,,,,,,
330,331,4,4,1244,fixationIA,targetIA,188.0,targetIA,172.0,targetIA,272.0,,targetIA,188.0,frog,frogFront.png,duckFront.png,landoltCR.png,landoltCTop.png,Hcong,h,ribbitL.wav,4.0,10.0,56.0,h,1.38441707636,2020_Feb_26_1123,59.966808153900004,duckFrog,True,Animal,Duck1
331,332,4,3,1132,fixationIA,targetIA,184.0,targetIA,400.0,,,,targetIA,184.0,frog,frogFront.png,duckFront.png,landoltCR.png,landoltCTop.png,Hcong,h,ribbitL.wav,4.0,11.0,40.0,h,1.10107123115,2020_Feb_26_1123,59.966808153900004,duckFrog,True,Animal,Duck1
332,333,4,6,32,fixationIA,fixationIA,528.0,fixationIA,512.0,distIA,236.0,targetIA,distIA,236.0,frog,duckFront.png,frogFront.png,landoltCTop.png,landoltCL.png,HinCong,h,quackL.wav,4.0,12.0,46.0,h,1.4511454226299998,2020_Feb_26_1123,59.966808153900004,duckFrog,True,Animal,Frog1
333,334,4,3,628,fixationIA,fixationIA,392.0,targetIA,608.0,,,,targetIA,608.0,frog,frogFront.png,duckFront.png,landoltCL.png,landoltCBottom.png,HinCong,b,quackR.wav,4.0,13.0,34.0,b,1.18414772903,2020_Feb_26_1123,59.966808153900004,duckFrog,True,Animal,Frog1
334,335,4,3,68,fixationIA,fixationIA,904.0,targetIA,532.0,,,,targetIA,532.0,frog,frogFront.png,duckFront.png,landoltCR.png,landoltCBottom.png,HcongWN,b,wnL.wav,4.0,14.0,33.0,b,0.917565712967,2020_Feb_26_1123,59.966808153900004,duckFrog,True,White Noise,Duck1
335,336,4,3,924,fixationIA,targetIA,148.0,targetIA,312.0,,,,targetIA,148.0,frog,frogFront.png,duckFront.png,landoltCR.png,landoltCBottom.png,HinCongWN,b,wnR.wav,4.0,15.0,67.0,b,0.917654420191,2020_Feb_26_1123,59.966808153900004,duckFrog,True,White Noise,Frog1
336,337,4,4,988,fixationIA,targetIA,188.0,targetIA,164.0,targetIA,220.0,,targetIA,188.0,frog,frogFront.png,duckFront.png,landoltCL.png,landoltCTop.png,HcongWN,h,wnL.wav,4.0,16.0,57.0,h,0.9841408377249999,2020_Feb_26_1123,59.966808153900004,duckFrog,True,White Noise,Duck1
337,338,4,4,1028,fixationIA,distIA,236.0,targetIA,120.0,targetIA,340.0,,distIA,236.0,frog,duckFront.png,frogFront.png,landoltCBottom.png,landoltCR.png,HinCongWN,b,wnL.wav,4.0,17.0,71.0,b,1.3178815399600001,2020_Feb_26_1123,59.966808153900004,duckFrog,True,White Noise,Frog1
338,339,4,4,1028,fixationIA,distIA,300.0,targetIA,144.0,targetIA,288.0,,distIA,300.0,frog,duckFront.png,frogFront.png,landoltCBottom.png,landoltCL.png,Hcong,b,ribbitR.wav,4.0,18.0,20.0,b,1.5182223662399998,2020_Feb_26_1123,59.966808153900004,duckFrog,True,Animal,Duck1
339,340,4,2,1044,fixationIA,targetIA,668.0,,,,,,targetIA,668.0,frog,frogFront.png,duckFront.png,landoltCR.png,landoltCTop.png,Hcong,h,ribbitL.wav,4.0,19.0,72.0,h,1.1675532499799999,2020_Feb_26_1123,59.966808153900004,duckFrog,True,Animal,Duck1
340,341,4,5,1172,fixationIA,distIA,160.0,distIA,132.0,targetIA,136.0,targetIA,distIA,160.0,frog,duckFront.png,frogFront.png,landoltCBottom.png,landoltCR.png,HinCongWN,b,wnL.wav,4.0,20.0,23.0,b,1.4179410690799998,2020_Feb_26_1123,59.966808153900004,duckFrog,True,White Noise,Frog1
341,342,4,3,1208,fixationIA,targetIA,240.0,targetIA,224.0,,,,targetIA,240.0,frog,duckFront.png,frogFront.png,landoltCTop.png,landoltCR.png,HinCongWN,h,wnL.wav,4.0,21.0,47.0,h,1.1510910986299998,2020_Feb_26_1123,59.966808153900004,duckFrog,True,White Noise,Frog1
342,343,4,3,1180,fixationIA,targetIA,200.0,targetIA,228.0,,,,targetIA,200.0,frog,duckFront.png,frogFront.png,landoltCBottom.png,landoltCL.png,Hcong,b,ribbitR.wav,4.0,22.0,36.0,b,1.03431685921,2020_Feb_26_1123,59.966808153900004,duckFrog,True,Animal,Duck1
343,344,4,3,1100,fixationIA,targetIA,240.0,targetIA,112.0,,,,targetIA,240.0,frog,duckFront.png,frogFront.png,landoltCTop.png,landoltCL.png,Hcong,h,ribbitR.wav,4.0,23.0,76.0,h,1.05102937015,2020_Feb_26_1123,59.966808153900004,duckFrog,True,Animal,Duck1
344,345,4,3,1184,fixationIA,targetIA,172.0,targetIA,120.0,,,,targetIA,172.0,frog,frogFront.png,duckFront.png,landoltCR.png,landoltCTop.png,Hcong,h,ribbitL.wav,4.0,24.0,24.0,h,0.8506104668629999,2020_Feb_26_1123,59.966808153900004,duckFrog,True,Animal,Duck1
345,346,4,8,340,fixationIA,fixationIA,448.0,fixationIA,252.0,distIA,504.0,targetIA,distIA,504.0,,,,,,,,,,,,,,,,,,,
346,347,4,4,380,fixationIA,fixationIA,692.0,targetIA,228.0,targetIA,380.0,,targetIA,228.0,duck,duckFront.png,frogFront.png,landoltCL.png,landoltCBottom.png,LinCongWN,b,wnR.wav,4.0,26.0,11.0,b,1.10127173876,2020_Feb_26_1123,59.966808153900004,duckFrog,True,White Noise,Duck2
347,348,4,3,960,fixationIA,targetIA,216.0,targetIA,156.0,,,,targetIA,216.0,frog,frogFront.png,duckFront.png,landoltCL.png,landoltCTop.png,HcongWN,h,wnL.wav,4.0,27.0,73.0,h,0.717437857311,2020_Feb_26_1123,59.966808153900004,duckFrog,True,White Noise,Duck1
348,349,4,3,360,fixationIA,fixationIA,744.0,targetIA,532.0,,,,targetIA,532.0,frog,duckFront.png,frogFront.png,landoltCBottom.png,landoltCL.png,HinCong,b,quackL.wav,4.0,28.0,70.0,b,1.05079550571,2020_Feb_26_1123,59.966808153900004,duckFrog,True,Animal,Frog1
349,350,4,3,596,fixationIA,fixationIA,380.0,targetIA,452.0,,,,targetIA,452.0,frog,duckFront.png,frogFront.png,landoltCBottom.png,landoltCR.png,HcongWN,b,wnR.wav,4.0,29.0,53.0,b,0.8341912028849999,2020_Feb_26_1123,59.966808153900004,duckFrog,True,White Noise,Duck1
350,351,4,4,108,fixationIA,fixationIA,864.0,targetIA,172.0,targetIA,216.0,,targetIA,172.0,frog,frogFront.png,duckFront.png,landoltCR.png,landoltCBottom.png,HcongWN,b,wnL.wav,4.0,30.0,65.0,b,0.767156780086,2020_Feb_26_1123,59.966808153900004,duckFrog,True,White Noise,Duck1
351,352,4,7,36,fixationIA,fixationIA,1060.0,distIA,156.0,distIA,156.0,distIA,distIA,156.0,duck,duckFront.png,frogFront.png,landoltCR.png,landoltCTop.png,LinCongWN,h,wnR.wav,4.0,31.0,3.0,h,1.68489550878,2020_Feb_26_1123,59.966808153900004,duckFrog,True,White Noise,Duck2
352,353,4,8,440,fixationIA,fixationIA,100.0,targetIA,140.0,targetIA,188.0,distIA,targetIA,140.0,,,,,,,,,,,,,,,,,,,
353,354,4,5,988,fixationIA,distIA,324.0,distIA,44.0,targetIA,240.0,targetIA,distIA,324.0,duck,frogFront.png,duckFront.png,landoltCBottom.png,landoltCR.png,LinCong,b,ribbitL.wav,4.0,33.0,14.0,b,1.46803571456,2020_Feb_26_1123,59.966808153900004,duckFrog,True,Animal,Duck2
354,355,4,3,72,fixationIA,fixationIA,1084.0,targetIA,564.0,,,,targetIA,564.0,frog,frogFront.png,duckFront.png,landoltCR.png,landoltCBottom.png,HinCongWN,b,wnR.wav,4.0,34.0,35.0,b,1.06751791373,2020_Feb_26_1123,59.966808153900004,duckFrog,True,White Noise,Frog1
355,356,4,3,376,fixationIA,fixationIA,476.0,targetIA,240.0,,,,targetIA,240.0,,,,,,,,,,,,,,,,,,,
356,357,4,6,368,fixationIA,fixationIA,204.0,fixationIA,368.0,distIA,376.0,targetIA,distIA,376.0,frog,duckFront.png,frogFront.png,landoltCTop.png,landoltCR.png,HinCongWN,h,wnL.wav,4.0,36.0,31.0,h,1.71799099438,2020_Feb_26_1123,59.966808153900004,duckFrog,True,White Noise,Frog1
357,358,4,5,400,fixationIA,fixationIA,804.0,distIA,336.0,targetIA,172.0,targetIA,distIA,336.0,duck,frogFront.png,duckFront.png,landoltCTop.png,landoltCR.png,LinCong,h,ribbitL.wav,4.0,37.0,6.0,h,1.73498942112,2020_Feb_26_1123,59.966808153900004,duckFrog,True,Animal,Duck2
358,359,4,3,860,fixationIA,targetIA,168.0,targetIA,360.0,,,,targetIA,168.0,frog,duckFront.png,frogFront.png,landoltCBottom.png,landoltCR.png,HcongWN,b,wnR.wav,4.0,38.0,37.0,b,0.951073577133,2020_Feb_26_1123,59.966808153900004,duckFrog,True,White Noise,Duck1
359,360,4,3,1040,fixationIA,targetIA,260.0,targetIA,340.0,,,,targetIA,260.0,frog,frogFront.png,duckFront.png,landoltCL.png,landoltCTop.png,HcongWN,h,wnL.wav,4.0,39.0,25.0,h,1.01738331337,2020_Feb_26_1123,59.966808153900004,duckFrog,True,White Noise,Duck1
360,361,4,3,360,fixationIA,fixationIA,612.0,targetIA,520.0,,,,targetIA,520.0,frog,frogFront.png,duckFront.png,landoltCL.png,landoltCTop.png,HcongWN,h,wnL.wav,4.0,40.0,41.0,h,0.884279250298,2020_Feb_26_1123,59.966808153900004,duckFrog,True,White Noise,Duck1
361,362,4,2,944,fixationIA,targetIA,464.0,,,,,,targetIA,464.0,frog,duckFront.png,frogFront.png,landoltCTop.png,landoltCR.png,HcongWN,h,wnR.wav,4.0,41.0,77.0,h,0.800614425694,2020_Feb_26_1123,59.966808153900004,duckFrog,True,White Noise,Duck1
362,363,4,4,988,fixationIA,distIA,284.0,distIA,196.0,targetIA,600.0,,distIA,284.0,duck,frogFront.png,duckFront.png,landoltCTop.png,landoltCL.png,LcongWN,h,wnR.wav,4.0,42.0,5.0,h,1.58494448102,2020_Feb_26_1123,59.966808153900004,duckFrog,True,White Noise,Frog2
363,364,4,3,380,fixationIA,fixationIA,552.0,targetIA,476.0,,,,targetIA,476.0,frog,frogFront.png,duckFront.png,landoltCL.png,landoltCBottom.png,Hcong,b,ribbitL.wav,4.0,43.0,32.0,b,0.783897516056,2020_Feb_26_1123,59.966808153900004,duckFrog,True,Animal,Duck1
364,365,4,2,1204,fixationIA,targetIA,420.0,,,,,,targetIA,420.0,frog,frogFront.png,duckFront.png,landoltCR.png,landoltCBottom.png,HinCongWN,b,wnR.wav,4.0,44.0,19.0,b,1.00097504616,2020_Feb_26_1123,59.966808153900004,duckFrog,True,White Noise,Frog1
365,366,4,8,332,fixationIA,fixationIA,640.0,distIA,192.0,distIA,148.0,distIA,distIA,192.0,duck,frogFront.png,duckFront.png,landoltCBottom.png,landoltCL.png,LcongWN,b,wnR.wav,4.0,45.0,13.0,b,1.5344917077000002,2020_Feb_26_1123,59.966808153900004,duckFrog,True,White Noise,Frog2
366,367,4,3,1012,fixationIA,targetIA,296.0,distIA,276.0,,,,targetIA,296.0,duck,frogFront.png,duckFront.png,landoltCBottom.png,landoltCL.png,LinCongWN,b,wnL.wav,4.0,46.0,15.0,b,1.11786841715,2020_Feb_26_1123,59.966808153900004,duckFrog,True,White Noise,Duck2
367,368,4,3,1084,fixationIA,targetIA,220.0,targetIA,436.0,,,,targetIA,220.0,frog,duckFront.png,frogFront.png,landoltCTop.png,landoltCL.png,HinCong,h,quackL.wav,4.0,47.0,78.0,h,1.13433936592,2020_Feb_26_1123,59.966808153900004,duckFrog,True,Animal,Frog1
368,369,4,4,976,fixationIA,distIA,340.0,targetIA,136.0,targetIA,560.0,,distIA,340.0,duck,duckFront.png,frogFront.png,landoltCR.png,landoltCTop.png,LcongWN,h,wnL.wav,4.0,48.0,1.0,h,1.60101074896,2020_Feb_26_1123,59.966808153900004,duckFrog,True,White Noise,Frog2
369,370,4,3,340,fixationIA,fixationIA,712.0,targetIA,636.0,,,,targetIA,636.0,frog,duckFront.png,frogFront.png,landoltCTop.png,landoltCR.png,HcongWN,h,wnR.wav,4.0,49.0,61.0,h,1.067263522,2020_Feb_26_1123,59.966808153900004,duckFrog,True,White Noise,Duck1
370,371,4,4,1040,fixationIA,distIA,356.0,targetIA,224.0,targetIA,520.0,,distIA,356.0,frog,frogFront.png,duckFront.png,landoltCR.png,landoltCTop.png,HinCong,h,quackR.wav,4.0,50.0,74.0,h,1.6512600822,2020_Feb_26_1123,59.966808153900004,duckFrog,True,Animal,Frog1
371,372,4,3,996,fixationIA,targetIA,192.0,targetIA,252.0,,,,targetIA,192.0,frog,duckFront.png,frogFront.png,landoltCTop.png,landoltCL.png,Hcong,h,ribbitR.wav,4.0,51.0,60.0,h,0.8338656987469999,2020_Feb_26_1123,59.966808153900004,duckFrog,True,Animal,Duck1
372,373,4,3,1024,fixationIA,targetIA,420.0,targetIA,180.0,,,,targetIA,420.0,frog,duckFront.png,frogFront.png,landoltCBottom.png,landoltCL.png,Hcong,b,ribbitR.wav,4.0,52.0,52.0,b,1.0177047853499999,2020_Feb_26_1123,59.966808153900004,duckFrog,True,Animal,Duck1
373,374,4,4,980,fixationIA,distIA,348.0,targetIA,208.0,targetIA,316.0,,distIA,348.0,duck,duckFront.png,frogFront.png,landoltCL.png,landoltCTop.png,Lcong,h,quackL.wav,4.0,53.0,0.0,h,1.38454793782,2020_Feb_26_1123,59.966808153900004,duckFrog,True,Animal,Frog2
374,375,4,2,968,fixationIA,targetIA,524.0,,,,,,targetIA,524.0,frog,frogFront.png,duckFront.png,landoltCR.png,landoltCBottom.png,HinCongWN,b,wnR.wav,4.0,54.0,51.0,b,0.900970867384,2020_Feb_26_1123,59.966808153900004,duckFrog,True,White Noise,Frog1
375,376,4,3,1100,fixationIA,targetIA,240.0,targetIA,392.0,,,,targetIA,240.0,frog,frogFront.png,duckFront.png,landoltCL.png,landoltCTop.png,HinCongWN,h,wnR.wav,4.0,55.0,75.0,h,1.1177280251700001,2020_Feb_26_1123,59.966808153900004,duckFrog,True,White Noise,Frog1
376,377,4,4,268,fixationIA,targetIA,156.0,targetIA,516.0,fixationIA,120.0,,targetIA,156.0,frog,frogFront.png,duckFront.png,landoltCL.png,landoltCTop.png,HinCongWN,h,wnR.wav,4.0,56.0,27.0,h,1.05103083637,2020_Feb_26_1123,59.966808153900004,duckFrog,True,White Noise,Frog1
377,378,4,2,1096,fixationIA,targetIA,504.0,,,,,,targetIA,504.0,frog,frogFront.png,duckFront.png,landoltCR.png,landoltCBottom.png,HcongWN,b,wnL.wav,4.0,57.0,49.0,b,0.984494933422,2020_Feb_26_1123,59.966808153900004,duckFrog,True,White Noise,Duck1
378,379,4,5,1088,fixationIA,distIA,244.0,distIA,132.0,targetIA,288.0,targetIA,distIA,244.0,duck,duckFront.png,frogFront.png,landoltCR.png,landoltCBottom.png,Lcong,b,quackL.wav,4.0,58.0,8.0,b,1.58482534943,2020_Feb_26_1123,59.966808153900004,duckFrog,True,Animal,Frog2
379,380,4,5,884,fixationIA,distIA,216.0,distIA,176.0,targetIA,248.0,targetIA,distIA,216.0,frog,duckFront.png,frogFront.png,landoltCTop.png,landoltCL.png,HinCong,h,quackL.wav,4.0,59.0,62.0,h,1.5178418783,2020_Feb_26_1123,59.966808153900004,duckFrog,True,Animal,Frog1
380,381,4,6,1300,fixationIA,distIA,240.0,distIA,156.0,targetIA,152.0,targetIA,distIA,240.0,duck,duckFront.png,frogFront.png,landoltCR.png,landoltCBottom.png,LinCong,b,ribbitR.wav,4.0,60.0,10.0,b,1.8511973273400002,2020_Feb_26_1123,59.966808153900004,duckFrog,True,Animal,Duck2
381,382,4,2,1032,fixationIA,targetIA,452.0,,,,,,targetIA,452.0,frog,frogFront.png,duckFront.png,landoltCL.png,landoltCBottom.png,Hcong,b,ribbitL.wav,4.0,61.0,16.0,b,0.8510320093770001,2020_Feb_26_1123,59.966808153900004,duckFrog,True,Animal,Duck1
382,383,4,4,248,fixationIA,fixationIA,712.0,targetIA,212.0,targetIA,280.0,,targetIA,212.0,frog,duckFront.png,frogFront.png,landoltCTop.png,landoltCL.png,Hcong,h,ribbitR.wav,4.0,62.0,44.0,h,0.8839988328839999,2020_Feb_26_1123,59.966808153900004,duckFrog,True,Animal,Duck1
383,384,4,5,1092,fixationIA,distIA,244.0,distIA,144.0,targetIA,252.0,targetIA,distIA,244.0,frog,duckFront.png,frogFront.png,landoltCTop.png,landoltCL.png,HinCong,h,quackL.wav,4.0,63.0,30.0,h,2.03534982164,2020_Feb_26_1123,59.966808153900004,duckFrog,True,Animal,Frog1
384,385,4,2,1100,fixationIA,targetIA,416.0,,,,,,targetIA,416.0,frog,frogFront.png,duckFront.png,landoltCL.png,landoltCBottom.png,HinCong,b,quackR.wav,4.0,64.0,18.0,b,0.934164590712,2020_Feb_26_1123,59.966808153900004,duckFrog,True,Animal,Frog1
385,386,4,2,1156,fixationIA,targetIA,436.0,,,,,,targetIA,436.0,frog,frogFront.png,duckFront.png,landoltCL.png,landoltCBottom.png,Hcong,b,ribbitL.wav,4.0,65.0,48.0,b,0.967628101265,2020_Feb_26_1123,59.966808153900004,duckFrog,True,Animal,Duck1
386,387,4,2,988,fixationIA,targetIA,452.0,,,,,,targetIA,452.0,frog,frogFront.png,duckFront.png,landoltCL.png,landoltCBottom.png,Hcong,b,ribbitL.wav,4.0,66.0,64.0,b,0.867579568905,2020_Feb_26_1123,59.966808153900004,duckFrog,True,Animal,Duck1
387,388,4,2,1464,fixationIA,targetIA,620.0,,,,,,targetIA,620.0,frog,duckFront.png,frogFront.png,landoltCTop.png,landoltCR.png,HcongWN,h,wnR.wav,4.0,67.0,45.0,h,1.45112856093,2020_Feb_26_1123,59.966808153900004,duckFrog,True,White Noise,Duck1
388,389,4,4,980,fixationIA,distIA,332.0,targetIA,208.0,targetIA,288.0,,distIA,332.0,frog,duckFront.png,frogFront.png,landoltCBottom.png,landoltCR.png,HinCongWN,b,wnL.wav,4.0,68.0,39.0,b,1.33463913763,2020_Feb_26_1123,59.966808153900004,duckFrog,True,White Noise,Frog1
389,390,4,2,1012,fixationIA,targetIA,412.0,,,,,,targetIA,412.0,frog,frogFront.png,duckFront.png,landoltCR.png,landoltCBottom.png,HcongWN,b,wnL.wav,4.0,69.0,17.0,b,0.7671879375849999,2020_Feb_26_1123,59.966808153900004,duckFrog,True,White Noise,Duck1
390,391,4,3,1140,fixationIA,targetIA,376.0,targetIA,284.0,,,,targetIA,376.0,frog,frogFront.png,duckFront.png,landoltCL.png,landoltCTop.png,HinCongWN,h,wnR.wav,4.0,70.0,43.0,h,1.2514273796,2020_Feb_26_1123,59.966808153900004,duckFrog,True,White Noise,Frog1
391,392,4,4,676,fixationIA,fixationIA,404.0,targetIA,236.0,targetIA,188.0,,targetIA,236.0,frog,duckFront.png,frogFront.png,landoltCBottom.png,landoltCR.png,HcongWN,b,wnR.wav,4.0,71.0,69.0,b,0.867360733348,2020_Feb_26_1123,59.966808153900004,duckFrog,True,White Noise,Duck1
392,393,4,4,876,fixationIA,distIA,216.0,distIA,224.0,targetIA,612.0,,distIA,216.0,duck,frogFront.png,duckFront.png,landoltCTop.png,landoltCR.png,Lcong,h,quackR.wav,4.0,72.0,4.0,h,1.56820924344,2020_Feb_26_1123,59.966808153900004,duckFrog,True,Animal,Frog2
393,394,4,4,1120,fixationIA,targetIA,196.0,targetIA,196.0,distIA,156.0,,targetIA,196.0,duck,duckFront.png,frogFront.png,landoltCL.png,landoltCBottom.png,LcongWN,b,wnL.wav,4.0,73.0,9.0,b,1.1674894687700001,2020_Feb_26_1123,59.966808153900004,duckFrog,True,White Noise,Frog2
394,395,4,4,1084,fixationIA,distIA,384.0,targetIA,172.0,targetIA,228.0,,distIA,384.0,duck,frogFront.png,duckFront.png,landoltCTop.png,landoltCL.png,LinCongWN,h,wnL.wav,4.0,74.0,7.0,h,1.3676873371399998,2020_Feb_26_1123,59.966808153900004,duckFrog,True,White Noise,Duck2
395,396,4,6,308,fixationIA,fixationIA,720.0,distIA,188.0,distIA,468.0,targetIA,distIA,188.0,frog,frogFront.png,duckFront.png,landoltCL.png,landoltCTop.png,HinCongWN,h,wnR.wav,4.0,75.0,59.0,h,1.90134585692,2020_Feb_26_1123,59.966808153900004,duckFrog,True,White Noise,Frog1
396,397,4,5,972,fixationIA,distIA,260.0,distIA,112.0,targetIA,212.0,targetIA,distIA,260.0,,,,,,,,,,,,,,,,,,,
397,398,4,2,1116,fixationIA,targetIA,616.0,,,,,,targetIA,616.0,frog,duckFront.png,frogFront.png,landoltCBottom.png,landoltCR.png,HcongWN,b,wnR.wav,4.0,77.0,21.0,b,1.11744907401,2020_Feb_26_1123,59.966808153900004,duckFrog,True,White Noise,Duck1
398,399,4,2,1036,fixationIA,targetIA,452.0,,,,,,targetIA,452.0,frog,duckFront.png,frogFront.png,landoltCBottom.png,landoltCL.png,HinCong,b,quackL.wav,4.0,78.0,22.0,b,1.01765529993,2020_Feb_26_1123,59.966808153900004,duckFrog,True,Animal,Frog1
399,400,4,2,952,fixationIA,targetIA,460.0,,,,,,targetIA,460.0,frog,duckFront.png,frogFront.png,landoltCBottom.png,landoltCR.png,HinCongWN,b,wnL.wav,4.0,79.0,55.0,b,0.9008902244679999,2020_Feb_26_1123,59.966808153900004,duckFrog,True,White Noise,Frog1
