targetAnim,audioPos,distPos,visualL,expLab,picR,picL,condLabel,corrAns,targetPos,visualR,pracTrials1a.thisRepN,pracTrials1a.thisTrialN,pracTrials1a.thisN,pracTrials1a.thisIndex,exp1a.thisRepN,exp1a.thisTrialN,exp1a.thisN,exp1a.thisIndex,pressToCont.keys,pressToCont.rt,key_resp_2.keys,key_resp_2.corr,key_resp_2.rt,spaceToBegin.keys,spaceToBegin.rt,date,frameRate,expName,session,participant,
,,,,,,,,,,,,,,,,,,,space,12.3432497769,,,,,,2020_Mar_04_1111,59.9635351776,duckFrog,001,10,
duck,quackL.wav,20,landoltCTop.png,prac,frogFront.png,duckFront.png,Hcong,h,-20,landoltCL.png,0,0,0,0,,,,,,,h,0,3.03594376295,,,2020_Mar_04_1111,59.9635351776,duckFrog,001,10,
frog,ribbitR.wav,-20,landoltCL.png,prac,frogFront.png,duckFront.png,Lcong,b,20,landoltCBottom.png,0,1,1,3,,,,,,,b,0,1.93492748606,,,2020_Mar_04_1111,59.9635351776,duckFrog,001,10,
duck,wnL.wav,20,landoltCBottom.png,prac,frogFront.png,duckFront.png,HcongWN,b,-20,landoltCL.png,0,2,2,4,,,,,,,b,0,1.41156924522,,,2020_Mar_04_1111,59.9635351776,duckFrog,001,10,
duck,ribbitL.wav,-20,landoltCR.png,prac,duckFront.png,frogFront.png,HinCong,h,20,landoltCTop.png,0,3,3,1,,,,,,,h,0,1.06749105145,,,2020_Mar_04_1111,59.9635351776,duckFrog,001,10,
frog,wnR.wav,20,landoltCBottom.png,prac,duckFront.png,frogFront.png,LinCongWN,b,-20,landoltCR.png,0,4,4,2,,,,,,,b,0,1.58454489303,,,2020_Mar_04_1111,59.9635351776,duckFrog,001,10,
,,,,,,,,,,,,,,,,,,,,,,,,space,13.8278208787,2020_Mar_04_1111,59.9635351776,duckFrog,001,10,
frog,ribbitR.wav,-20,landoltCL.png,V2,frogFront.png,duckFront.png,Hcong,b,20,landoltCBottom.png,,,,,0,0,0,20,,,b,0,2.0682102346,,,2020_Mar_04_1111,59.9635351776,duckFrog,001,10,
duck,wnL.wav,20,landoltCTop.png,V2,frogFront.png,duckFront.png,LcongWN,h,-20,landoltCR.png,,,,,0,1,1,1,,,h,0,1.41983838539,,,2020_Mar_04_1111,59.9635351776,duckFrog,001,10,
duck,wnL.wav,20,landoltCBottom.png,V2,frogFront.png,duckFront.png,LcongWN,b,-20,landoltCL.png,,,,,0,2,2,9,,,b,0,0.867520375963,,,2020_Mar_04_1111,59.9635351776,duckFrog,001,10,
frog,quackR.wav,20,landoltCBottom.png,V2,duckFront.png,frogFront.png,HinCong,b,-20,landoltCL.png,,,,,0,3,3,66,,,b,0,1.43463808994,,,2020_Mar_04_1111,59.9635351776,duckFrog,001,10,
frog,quackL.wav,-20,landoltCL.png,V2,frogFront.png,duckFront.png,HinCong,h,20,landoltCTop.png,,,,,0,4,4,30,,,h,0,1.68480753055,,,2020_Mar_04_1111,59.9635351776,duckFrog,001,10,
frog,wnR.wav,-20,landoltCR.png,V2,frogFront.png,duckFront.png,HcongWN,b,20,landoltCBottom.png,,,,,0,5,5,21,,,b,0,0.900863789575,,,2020_Mar_04_1111,59.9635351776,duckFrog,001,10,
duck,wnR.wav,20,landoltCBottom.png,V2,frogFront.png,duckFront.png,LinCongWN,b,-20,landoltCL.png,,,,,0,6,6,11,,,b,0,1.40108427309,,,2020_Mar_04_1111,59.9635351776,duckFrog,001,10,
frog,wnR.wav,20,landoltCBottom.png,V2,duckFront.png,frogFront.png,HinCongWN,b,-20,landoltCR.png,,,,,0,7,7,67,,,b,0,1.31785659958,,,2020_Mar_04_1111,59.9635351776,duckFrog,001,10,
duck,quackR.wav,-20,landoltCR.png,V2,duckFront.png,frogFront.png,Lcong,h,20,landoltCTop.png,,,,,0,8,8,4,,,h,0,0.833868322021,,,2020_Mar_04_1111,59.9635351776,duckFrog,001,10,
frog,ribbitL.wav,20,landoltCTop.png,V2,duckFront.png,frogFront.png,Hcong,h,-20,landoltCR.png,,,,,0,9,9,72,,,h,0,1.11754685963,,,2020_Mar_04_1111,59.9635351776,duckFrog,001,10,
frog,quackL.wav,-20,landoltCL.png,V2,frogFront.png,duckFront.png,HinCong,b,20,landoltCBottom.png,,,,,0,10,10,22,,,b,0,0.917601109919,,,2020_Mar_04_1111,59.9635351776,duckFrog,001,10,
frog,wnR.wav,-20,landoltCR.png,V2,frogFront.png,duckFront.png,HcongWN,h,20,landoltCTop.png,,,,,0,11,11,77,,,h,0,0.834200055368,,,2020_Mar_04_1111,59.9635351776,duckFrog,001,10,
duck,quackR.wav,-20,landoltCR.png,V2,duckFront.png,frogFront.png,Lcong,b,20,landoltCBottom.png,,,,,0,12,12,12,,,b,0,1.83513697286,,,2020_Mar_04_1111,59.9635351776,duckFrog,001,10,
frog,ribbitR.wav,-20,landoltCL.png,V2,frogFront.png,duckFront.png,Hcong,b,20,landoltCBottom.png,,,,,0,13,13,52,,,b,0,0.784188233927,,,2020_Mar_04_1111,59.9635351776,duckFrog,001,10,
frog,ribbitL.wav,20,landoltCBottom.png,V2,duckFront.png,frogFront.png,Hcong,b,-20,landoltCL.png,,,,,0,14,14,16,,,b,0,0.567102318659,,,2020_Mar_04_1111,59.9635351776,duckFrog,001,10,
frog,ribbitL.wav,20,landoltCTop.png,V2,duckFront.png,frogFront.png,Hcong,h,-20,landoltCR.png,,,,,0,15,15,24,,,b,0,0.967620262498,,,2020_Mar_04_1111,59.9635351776,duckFrog,001,10,
frog,wnL.wav,-20,landoltCR.png,V2,frogFront.png,duckFront.png,HinCongWN,h,20,landoltCTop.png,,,,,0,16,16,47,,,h,0,0.750484862132,,,2020_Mar_04_1111,59.9635351776,duckFrog,001,10,
frog,ribbitR.wav,-20,landoltCL.png,V2,frogFront.png,duckFront.png,Hcong,h,20,landoltCTop.png,,,,,0,17,17,76,,,h,0,1.13443886669,,,2020_Mar_04_1111,59.9635351776,duckFrog,001,10,
frog,wnL.wav,-20,landoltCR.png,V2,frogFront.png,duckFront.png,HinCongWN,h,20,landoltCTop.png,,,,,0,18,18,79,,,h,0,1.36800844545,,,2020_Mar_04_1111,59.9635351776,duckFrog,001,10,
duck,wnR.wav,20,landoltCTop.png,V2,frogFront.png,duckFront.png,LinCongWN,h,-20,landoltCR.png,,,,,0,19,19,3,,,h,0,1.55122640525,,,2020_Mar_04_1111,59.9635351776,duckFrog,001,10,
frog,wnL.wav,20,landoltCBottom.png,V2,duckFront.png,frogFront.png,HcongWN,b,-20,landoltCR.png,,,,,0,20,20,17,,,b,0,1.21788427455,,,2020_Mar_04_1111,59.9635351776,duckFrog,001,10,
frog,wnR.wav,-20,landoltCR.png,V2,frogFront.png,duckFront.png,HcongWN,b,20,landoltCBottom.png,,,,,0,21,21,53,,,b,0,0.633910842531,,,2020_Mar_04_1111,59.9635351776,duckFrog,001,10,
frog,wnR.wav,20,landoltCTop.png,V2,duckFront.png,frogFront.png,HinCongWN,h,-20,landoltCL.png,,,,,0,22,22,43,,,h,0,0.817469333007,,,2020_Mar_04_1111,59.9635351776,duckFrog,001,10,
frog,ribbitL.wav,20,landoltCBottom.png,V2,duckFront.png,frogFront.png,Hcong,b,-20,landoltCL.png,,,,,0,23,23,48,,,b,0,0.817538978648,,,2020_Mar_04_1111,59.9635351776,duckFrog,001,10,
frog,wnR.wav,20,landoltCBottom.png,V2,duckFront.png,frogFront.png,HinCongWN,b,-20,landoltCR.png,,,,,0,24,24,35,,,b,0,0.6673535929,,,2020_Mar_04_1111,59.9635351776,duckFrog,001,10,
frog,ribbitR.wav,-20,landoltCL.png,V2,frogFront.png,duckFront.png,Hcong,h,20,landoltCTop.png,,,,,0,25,25,28,,,h,0,0.717233820673,,,2020_Mar_04_1111,59.9635351776,duckFrog,001,10,
duck,wnR.wav,-20,landoltCL.png,V2,duckFront.png,frogFront.png,LcongWN,b,20,landoltCBottom.png,,,,,0,26,26,13,,,b,0,1.3679897511,,,2020_Mar_04_1111,59.9635351776,duckFrog,001,10,
frog,ribbitR.wav,-20,landoltCL.png,V2,frogFront.png,duckFront.png,Hcong,b,20,landoltCBottom.png,,,,,0,27,27,68,,,b,0,1.33456716134,,,2020_Mar_04_1111,59.9635351776,duckFrog,001,10,
frog,wnR.wav,-20,landoltCR.png,V2,frogFront.png,duckFront.png,HcongWN,h,20,landoltCTop.png,,,,,0,28,28,45,,,h,0,0.717507638125,,,2020_Mar_04_1111,59.9635351776,duckFrog,001,10,
duck,wnL.wav,-20,landoltCL.png,V2,duckFront.png,frogFront.png,LinCongWN,b,20,landoltCBottom.png,,,,,0,29,29,15,,,b,0,1.3178914224,,,2020_Mar_04_1111,59.9635351776,duckFrog,001,10,
duck,wnL.wav,-20,landoltCL.png,V2,duckFront.png,frogFront.png,LinCongWN,h,20,landoltCTop.png,,,,,0,30,30,7,,,h,0,0.717431760975,,,2020_Mar_04_1111,59.9635351776,duckFrog,001,10,
frog,wnR.wav,20,landoltCBottom.png,V2,duckFront.png,frogFront.png,HinCongWN,b,-20,landoltCR.png,,,,,0,31,31,51,,,b,0,1.2010982022,,,2020_Mar_04_1111,59.9635351776,duckFrog,001,10,
frog,wnL.wav,-20,landoltCR.png,V2,frogFront.png,duckFront.png,HinCongWN,b,20,landoltCBottom.png,,,,,0,32,32,55,,,b,0,0.684045460279,,,2020_Mar_04_1111,59.9635351776,duckFrog,001,10,
frog,quackL.wav,-20,landoltCL.png,V2,frogFront.png,duckFront.png,HinCong,b,20,landoltCBottom.png,,,,,0,33,33,38,,,b,0,0.81751808495,,,2020_Mar_04_1111,59.9635351776,duckFrog,001,10,
duck,ribbitL.wav,-20,landoltCR.png,V2,duckFront.png,frogFront.png,LinCong,h,20,landoltCTop.png,,,,,0,34,34,6,,,h,0,1.45132922422,,,2020_Mar_04_1111,59.9635351776,duckFrog,001,10,
frog,quackL.wav,-20,landoltCL.png,V2,frogFront.png,duckFront.png,HinCong,b,20,landoltCBottom.png,,,,,0,35,35,54,,,b,0,0.817526882311,,,2020_Mar_04_1111,59.9635351776,duckFrog,001,10,
duck,ribbitL.wav,-20,landoltCR.png,V2,duckFront.png,frogFront.png,LinCong,b,20,landoltCBottom.png,,,,,0,36,36,14,,,b,0,1.2679404493,,,2020_Mar_04_1111,59.9635351776,duckFrog,001,10,
frog,wnR.wav,20,landoltCBottom.png,V2,duckFront.png,frogFront.png,HinCongWN,b,-20,landoltCR.png,,,,,0,37,37,19,,,b,0,1.13421856644,,,2020_Mar_04_1111,59.9635351776,duckFrog,001,10,
frog,ribbitL.wav,20,landoltCBottom.png,V2,duckFront.png,frogFront.png,Hcong,b,-20,landoltCL.png,,,,,0,38,38,32,,,b,0,1.15111423907,,,2020_Mar_04_1111,59.9635351776,duckFrog,001,10,
frog,wnR.wav,20,landoltCTop.png,V2,duckFront.png,frogFront.png,HinCongWN,h,-20,landoltCL.png,,,,,0,39,39,59,,,h,0,1.40143140175,,,2020_Mar_04_1111,59.9635351776,duckFrog,001,10,
frog,wnL.wav,20,landoltCTop.png,V2,duckFront.png,frogFront.png,HcongWN,h,-20,landoltCL.png,,,,,0,40,40,73,,,h,0,0.61738282576,,,2020_Mar_04_1111,59.9635351776,duckFrog,001,10,
frog,wnL.wav,20,landoltCBottom.png,V2,duckFront.png,frogFront.png,HcongWN,b,-20,landoltCR.png,,,,,0,41,41,49,,,b,0,1.0343092891,,,2020_Mar_04_1111,59.9635351776,duckFrog,001,10,
frog,quackR.wav,20,landoltCBottom.png,V2,duckFront.png,frogFront.png,HinCong,b,-20,landoltCL.png,,,,,0,42,42,50,,,b,0,1.10107455935,,,2020_Mar_04_1111,59.9635351776,duckFrog,001,10,
frog,quackR.wav,20,landoltCTop.png,V2,duckFront.png,frogFront.png,HinCong,h,-20,landoltCR.png,,,,,0,43,43,42,,,h,0,0.817507088272,,,2020_Mar_04_1111,59.9635351776,duckFrog,001,10,
frog,quackR.wav,20,landoltCBottom.png,V2,duckFront.png,frogFront.png,HinCong,b,-20,landoltCL.png,,,,,0,44,44,34,,,b,0,1.1344872521,,,2020_Mar_04_1111,59.9635351776,duckFrog,001,10,
frog,wnL.wav,-20,landoltCR.png,V2,frogFront.png,duckFront.png,HinCongWN,b,20,landoltCBottom.png,,,,,0,45,45,23,,,b,0,0.600442066701,,,2020_Mar_04_1111,59.9635351776,duckFrog,001,10,
frog,ribbitR.wav,-20,landoltCL.png,V2,frogFront.png,duckFront.png,Hcong,h,20,landoltCTop.png,,,,,0,46,46,60,,,h,0,0.967638956849,,,2020_Mar_04_1111,59.9635351776,duckFrog,001,10,
duck,quackL.wav,20,landoltCBottom.png,V2,frogFront.png,duckFront.png,Lcong,b,-20,landoltCR.png,,,,,0,47,47,8,,,b,0,1.39036250571,,,2020_Mar_04_1111,59.9635351776,duckFrog,001,10,
duck,ribbitR.wav,20,landoltCBottom.png,V2,frogFront.png,duckFront.png,LinCong,b,-20,landoltCR.png,,,,,0,48,48,10,,,b,0,0.484096045024,,,2020_Mar_04_1111,59.9635351776,duckFrog,001,10,
frog,ribbitL.wav,20,landoltCTop.png,V2,duckFront.png,frogFront.png,Hcong,h,-20,landoltCR.png,,,,,0,49,49,40,,,h,0,1.30100784614,,,2020_Mar_04_1111,59.9635351776,duckFrog,001,10,
frog,wnR.wav,20,landoltCTop.png,V2,duckFront.png,frogFront.png,HinCongWN,h,-20,landoltCL.png,,,,,0,50,50,27,,,h,0,1.28467850277,,,2020_Mar_04_1111,59.9635351776,duckFrog,001,10,
frog,ribbitL.wav,20,landoltCTop.png,V2,duckFront.png,frogFront.png,Hcong,h,-20,landoltCR.png,,,,,0,51,51,56,,,h,0,0.684121337428,,,2020_Mar_04_1111,59.9635351776,duckFrog,001,10,
duck,quackL.wav,20,landoltCTop.png,V2,frogFront.png,duckFront.png,Lcong,h,-20,landoltCL.png,,,,,0,52,52,0,,,h,0,0.734138290631,,,2020_Mar_04_1111,59.9635351776,duckFrog,001,10,
frog,ribbitR.wav,-20,landoltCL.png,V2,frogFront.png,duckFront.png,Hcong,b,20,landoltCBottom.png,,,,,0,53,53,36,,,b,0,0.633790612133,,,2020_Mar_04_1111,59.9635351776,duckFrog,001,10,
frog,wnR.wav,-20,landoltCR.png,V2,frogFront.png,duckFront.png,HcongWN,b,20,landoltCBottom.png,,,,,0,54,54,37,,,b,0,0.634192357684,,,2020_Mar_04_1111,59.9635351776,duckFrog,001,10,
frog,quackR.wav,20,landoltCTop.png,V2,duckFront.png,frogFront.png,HinCong,h,-20,landoltCR.png,,,,,0,55,55,26,,,h,0,0.63372426547,,,2020_Mar_04_1111,59.9635351776,duckFrog,001,10,
frog,quackR.wav,20,landoltCTop.png,V2,duckFront.png,frogFront.png,HinCong,h,-20,landoltCR.png,,,,,0,56,56,74,,,h,0,0.634002481558,,,2020_Mar_04_1111,59.9635351776,duckFrog,001,10,
frog,quackR.wav,20,landoltCTop.png,V2,duckFront.png,frogFront.png,HinCong,h,-20,landoltCR.png,,,,,0,57,57,58,,,h,0,0.433912675333,,,2020_Mar_04_1111,59.9635351776,duckFrog,001,10,
frog,wnL.wav,20,landoltCBottom.png,V2,duckFront.png,frogFront.png,HcongWN,b,-20,landoltCR.png,,,,,0,58,58,65,,,b,0,0.6341743964,,,2020_Mar_04_1111,59.9635351776,duckFrog,001,10,
frog,wnL.wav,20,landoltCTop.png,V2,duckFront.png,frogFront.png,HcongWN,h,-20,landoltCL.png,,,,,0,59,59,41,,,h,0,0.684030064935,,,2020_Mar_04_1111,59.9635351776,duckFrog,001,10,
frog,quackL.wav,-20,landoltCL.png,V2,frogFront.png,duckFront.png,HinCong,h,20,landoltCTop.png,,,,,0,60,60,62,,,h,0,0.667153453251,,,2020_Mar_04_1111,59.9635351776,duckFrog,001,10,
frog,wnL.wav,20,landoltCBottom.png,V2,duckFront.png,frogFront.png,HcongWN,b,-20,landoltCR.png,,,,,0,61,61,33,,,b,0,0.738726473966,,,2020_Mar_04_1111,59.9635351776,duckFrog,001,10,
frog,wnR.wav,20,landoltCTop.png,V2,duckFront.png,frogFront.png,HinCongWN,h,-20,landoltCL.png,,,,,0,62,62,75,,,h,0,0.800821085781,,,2020_Mar_04_1111,59.9635351776,duckFrog,001,10,
frog,quackL.wav,-20,landoltCL.png,V2,frogFront.png,duckFront.png,HinCong,b,20,landoltCBottom.png,,,,,0,63,63,70,,,b,0,1.0339874528,,,2020_Mar_04_1111,59.9635351776,duckFrog,001,10,
frog,wnR.wav,-20,landoltCR.png,V2,frogFront.png,duckFront.png,HcongWN,h,20,landoltCTop.png,,,,,0,64,64,61,,,h,0,0.650705345673,,,2020_Mar_04_1111,59.9635351776,duckFrog,001,10,
frog,wnR.wav,-20,landoltCR.png,V2,frogFront.png,duckFront.png,HcongWN,b,20,landoltCBottom.png,,,,,0,65,65,69,,,b,0,0.71749700798,,,2020_Mar_04_1111,59.9635351776,duckFrog,001,10,
frog,wnL.wav,20,landoltCTop.png,V2,duckFront.png,frogFront.png,HcongWN,h,-20,landoltCL.png,,,,,0,66,66,25,,,h,0,0.550393956219,,,2020_Mar_04_1111,59.9635351776,duckFrog,001,10,
duck,wnR.wav,-20,landoltCL.png,V2,duckFront.png,frogFront.png,LcongWN,h,20,landoltCTop.png,,,,,0,67,67,5,,,h,0,1.4844409744,,,2020_Mar_04_1111,59.9635351776,duckFrog,001,10,
frog,wnL.wav,-20,landoltCR.png,V2,frogFront.png,duckFront.png,HinCongWN,h,20,landoltCTop.png,,,,,0,68,68,63,,,h,0,1.51803767832,,,2020_Mar_04_1111,59.9635351776,duckFrog,001,10,
frog,ribbitL.wav,20,landoltCBottom.png,V2,duckFront.png,frogFront.png,Hcong,b,-20,landoltCL.png,,,,,0,69,69,64,,,b,0,0.583958403207,,,2020_Mar_04_1111,59.9635351776,duckFrog,001,10,
duck,ribbitR.wav,20,landoltCTop.png,V2,frogFront.png,duckFront.png,LinCong,h,-20,landoltCL.png,,,,,0,70,70,2,,,h,0,1.61816285722,,,2020_Mar_04_1111,59.9635351776,duckFrog,001,10,
frog,wnL.wav,-20,landoltCR.png,V2,frogFront.png,duckFront.png,HinCongWN,h,20,landoltCTop.png,,,,,0,71,71,31,,,h,0,0.650492376531,,,2020_Mar_04_1111,59.9635351776,duckFrog,001,10,
frog,wnL.wav,-20,landoltCR.png,V2,frogFront.png,duckFront.png,HinCongWN,b,20,landoltCBottom.png,,,,,0,72,72,71,,,b,0,0.750833090482,,,2020_Mar_04_1111,59.9635351776,duckFrog,001,10,
frog,wnL.wav,20,landoltCTop.png,V2,duckFront.png,frogFront.png,HcongWN,h,-20,landoltCL.png,,,,,0,73,73,57,,,h,0,0.650442158367,,,2020_Mar_04_1111,59.9635351776,duckFrog,001,10,
frog,wnR.wav,-20,landoltCR.png,V2,frogFront.png,duckFront.png,HcongWN,h,20,landoltCTop.png,,,,,0,74,74,29,,,h,0,0.683787038201,,,2020_Mar_04_1111,59.9635351776,duckFrog,001,10,
frog,quackL.wav,-20,landoltCL.png,V2,frogFront.png,duckFront.png,HinCong,h,20,landoltCTop.png,,,,,0,75,75,78,,,h,0,1.90163905581,,,2020_Mar_04_1111,59.9635351776,duckFrog,001,10,
frog,wnL.wav,-20,landoltCR.png,V2,frogFront.png,duckFront.png,HinCongWN,b,20,landoltCBottom.png,,,,,0,76,76,39,,,b,0,0.700782780652,,,2020_Mar_04_1111,59.9635351776,duckFrog,001,10,
frog,quackR.wav,20,landoltCBottom.png,V2,duckFront.png,frogFront.png,HinCong,b,-20,landoltCL.png,,,,,0,77,77,18,,,b,0,0.633798676368,,,2020_Mar_04_1111,59.9635351776,duckFrog,001,10,
frog,quackL.wav,-20,landoltCL.png,V2,frogFront.png,duckFront.png,HinCong,h,20,landoltCTop.png,,,,,0,78,78,46,,,h,0,0.433659385017,,,2020_Mar_04_1111,59.9635351776,duckFrog,001,10,
frog,ribbitR.wav,-20,landoltCL.png,V2,frogFront.png,duckFront.png,Hcong,h,20,landoltCTop.png,,,,,0,79,79,44,,,h,0,0.767511028767,,,2020_Mar_04_1111,59.9635351776,duckFrog,001,10,
frog,wnR.wav,20,landoltCTop.png,V2,duckFront.png,frogFront.png,HinCongWN,h,-20,landoltCL.png,,,,,1,0,80,75,,,h,0,0.733827817574,,,2020_Mar_04_1111,59.9635351776,duckFrog,001,10,
frog,wnR.wav,-20,landoltCR.png,V2,frogFront.png,duckFront.png,HcongWN,b,20,landoltCBottom.png,,,,,1,1,81,69,,,b,0,0.667188642605,,,2020_Mar_04_1111,59.9635351776,duckFrog,001,10,
frog,quackR.wav,20,landoltCBottom.png,V2,duckFront.png,frogFront.png,HinCong,b,-20,landoltCL.png,,,,,1,2,82,50,,,b,0,0.533904427808,,,2020_Mar_04_1111,59.9635351776,duckFrog,001,10,
duck,wnR.wav,-20,landoltCL.png,V2,duckFront.png,frogFront.png,LcongWN,h,20,landoltCTop.png,,,,,1,3,83,5,,,h,0,1.16752899002,,,2020_Mar_04_1111,59.9635351776,duckFrog,001,10,
frog,quackR.wav,20,landoltCBottom.png,V2,duckFront.png,frogFront.png,HinCong,b,-20,landoltCL.png,,,,,1,4,84,18,,,b,0,0.583757163899,,,2020_Mar_04_1111,59.9635351776,duckFrog,001,10,
duck,quackR.wav,-20,landoltCR.png,V2,duckFront.png,frogFront.png,Lcong,h,20,landoltCTop.png,,,,,1,5,85,4,,,h,0,0.983919548249,,,2020_Mar_04_1111,59.9635351776,duckFrog,001,10,
frog,wnR.wav,-20,landoltCR.png,V2,frogFront.png,duckFront.png,HcongWN,b,20,landoltCBottom.png,,,,,1,6,86,53,,,b,0,0.567369538068,,,2020_Mar_04_1111,59.9635351776,duckFrog,001,10,
frog,wnR.wav,-20,landoltCR.png,V2,frogFront.png,duckFront.png,HcongWN,b,20,landoltCBottom.png,,,,,1,7,87,21,,,b,0,1.08452308297,,,2020_Mar_04_1111,59.9635351776,duckFrog,001,10,
frog,wnR.wav,-20,landoltCR.png,V2,frogFront.png,duckFront.png,HcongWN,h,20,landoltCTop.png,,,,,1,8,88,61,,,h,0,0.784195931599,,,2020_Mar_04_1111,59.9635351776,duckFrog,001,10,
frog,wnR.wav,20,landoltCTop.png,V2,duckFront.png,frogFront.png,HinCongWN,h,-20,landoltCL.png,,,,,1,9,89,59,,,h,0,0.550410451251,,,2020_Mar_04_1111,59.9635351776,duckFrog,001,10,
frog,quackL.wav,-20,landoltCL.png,V2,frogFront.png,duckFront.png,HinCong,b,20,landoltCBottom.png,,,,,1,10,90,70,,,b,0,1.06745182993,,,2020_Mar_04_1111,59.9635351776,duckFrog,001,10,
frog,wnR.wav,-20,landoltCR.png,V2,frogFront.png,duckFront.png,HcongWN,b,20,landoltCBottom.png,,,,,1,11,91,37,,,b,0,0.800804224185,,,2020_Mar_04_1111,59.9635351776,duckFrog,001,10,
frog,wnL.wav,20,landoltCTop.png,V2,duckFront.png,frogFront.png,HcongWN,h,-20,landoltCL.png,,,,,1,12,92,57,,,h,0,0.833932835929,,,2020_Mar_04_1111,59.9635351776,duckFrog,001,10,
frog,wnL.wav,20,landoltCBottom.png,V2,duckFront.png,frogFront.png,HcongWN,b,-20,landoltCR.png,,,,,1,13,93,65,,,b,0,0.650757763186,,,2020_Mar_04_1111,59.9635351776,duckFrog,001,10,
frog,quackL.wav,-20,landoltCL.png,V2,frogFront.png,duckFront.png,HinCong,b,20,landoltCBottom.png,,,,,1,14,94,22,,,b,0,0.55058933064,,,2020_Mar_04_1111,59.9635351776,duckFrog,001,10,
frog,ribbitL.wav,20,landoltCBottom.png,V2,duckFront.png,frogFront.png,Hcong,b,-20,landoltCL.png,,,,,1,15,95,32,,,b,0,0.650512903696,,,2020_Mar_04_1111,59.9635351776,duckFrog,001,10,
duck,ribbitR.wav,20,landoltCBottom.png,V2,frogFront.png,duckFront.png,LinCong,b,-20,landoltCR.png,,,,,1,16,96,10,,,b,0,1.25135781561,,,2020_Mar_04_1111,59.9635351776,duckFrog,001,10,
frog,wnL.wav,-20,landoltCR.png,V2,frogFront.png,duckFront.png,HinCongWN,b,20,landoltCBottom.png,,,,,1,17,97,39,,,b,0,0.650361149455,,,2020_Mar_04_1111,59.9635351776,duckFrog,001,10,
frog,wnL.wav,-20,landoltCR.png,V2,frogFront.png,duckFront.png,HinCongWN,b,20,landoltCBottom.png,,,,,1,18,98,55,,,b,0,0.667425071355,,,2020_Mar_04_1111,59.9635351776,duckFrog,001,10,
frog,quackR.wav,20,landoltCBottom.png,V2,duckFront.png,frogFront.png,HinCong,b,-20,landoltCL.png,,,,,1,19,99,34,,,b,0,0.617128069222,,,2020_Mar_04_1111,59.9635351776,duckFrog,001,10,
duck,quackR.wav,-20,landoltCR.png,V2,duckFront.png,frogFront.png,Lcong,b,20,landoltCBottom.png,,,,,1,20,100,12,,,b,0,1.28423863539,,,2020_Mar_04_1111,59.9635351776,duckFrog,001,10,
frog,wnL.wav,-20,landoltCR.png,V2,frogFront.png,duckFront.png,HinCongWN,b,20,landoltCBottom.png,,,,,1,21,101,71,,,b,0,0.550793868984,,,2020_Mar_04_1111,59.9635351776,duckFrog,001,10,
duck,wnL.wav,-20,landoltCL.png,V2,duckFront.png,frogFront.png,LinCongWN,b,20,landoltCBottom.png,,,,,1,22,102,15,,,b,0,1.33464157223,,,2020_Mar_04_1111,59.9635351776,duckFrog,001,10,
frog,quackL.wav,-20,landoltCL.png,V2,frogFront.png,duckFront.png,HinCong,h,20,landoltCTop.png,,,,,1,23,103,62,,,h,0,0.867553732562,,,2020_Mar_04_1111,59.9635351776,duckFrog,001,10,
frog,ribbitL.wav,20,landoltCBottom.png,V2,duckFront.png,frogFront.png,Hcong,b,-20,landoltCL.png,,,,,1,24,104,48,,,b,0,0.400299476372,,,2020_Mar_04_1111,59.9635351776,duckFrog,001,10,
frog,quackL.wav,-20,landoltCL.png,V2,frogFront.png,duckFront.png,HinCong,b,20,landoltCBottom.png,,,,,1,25,105,38,,,b,0,0.516973932361,,,2020_Mar_04_1111,59.9635351776,duckFrog,001,10,
frog,wnR.wav,20,landoltCBottom.png,V2,duckFront.png,frogFront.png,HinCongWN,b,-20,landoltCR.png,,,,,1,26,106,67,,,b,0,0.63397792232,,,2020_Mar_04_1111,59.9635351776,duckFrog,001,10,
frog,ribbitL.wav,20,landoltCBottom.png,V2,duckFront.png,frogFront.png,Hcong,b,-20,landoltCL.png,,,,,1,27,107,16,,,b,0,0.517301633547,,,2020_Mar_04_1111,59.9635351776,duckFrog,001,10,
frog,quackL.wav,-20,landoltCL.png,V2,frogFront.png,duckFront.png,HinCong,h,20,landoltCTop.png,,,,,1,28,108,78,,,h,0,0.800596753397,,,2020_Mar_04_1111,59.9635351776,duckFrog,001,10,
frog,wnR.wav,20,landoltCBottom.png,V2,duckFront.png,frogFront.png,HinCongWN,b,-20,landoltCR.png,,,,,1,29,109,19,,,b,0,0.550416316139,,,2020_Mar_04_1111,59.9635351776,duckFrog,001,10,
frog,wnL.wav,20,landoltCTop.png,V2,duckFront.png,frogFront.png,HcongWN,h,-20,landoltCL.png,,,,,1,30,110,73,,,h,0,0.700808806141,,,2020_Mar_04_1111,59.9635351776,duckFrog,001,10,
duck,wnL.wav,-20,landoltCL.png,V2,duckFront.png,frogFront.png,LinCongWN,h,20,landoltCTop.png,,,,,1,31,111,7,,,h,0,1.38477069163,,,2020_Mar_04_1111,59.9635351776,duckFrog,001,10,
frog,quackR.wav,20,landoltCTop.png,V2,duckFront.png,frogFront.png,HinCong,h,-20,landoltCR.png,,,,,1,32,112,58,,,b,0,0.667068045645,,,2020_Mar_04_1111,59.9635351776,duckFrog,001,10,
duck,ribbitL.wav,-20,landoltCR.png,V2,duckFront.png,frogFront.png,LinCong,b,20,landoltCBottom.png,,,,,1,33,113,14,,,b,0,1.36775185613,,,2020_Mar_04_1111,59.9635351776,duckFrog,001,10,
frog,ribbitR.wav,-20,landoltCL.png,V2,frogFront.png,duckFront.png,Hcong,b,20,landoltCBottom.png,,,,,1,34,114,20,,,b,0,0.600708919577,,,2020_Mar_04_1111,59.9635351776,duckFrog,001,10,
frog,quackR.wav,20,landoltCTop.png,V2,duckFront.png,frogFront.png,HinCong,h,-20,landoltCR.png,,,,,1,35,115,42,,,h,0,0.767228413984,,,2020_Mar_04_1111,59.9635351776,duckFrog,001,10,
duck,wnR.wav,-20,landoltCL.png,V2,duckFront.png,frogFront.png,LcongWN,b,20,landoltCBottom.png,,,,,1,36,116,13,,,b,0,0.650431161659,,,2020_Mar_04_1111,59.9635351776,duckFrog,001,10,
frog,ribbitL.wav,20,landoltCBottom.png,V2,duckFront.png,frogFront.png,Hcong,b,-20,landoltCL.png,,,,,1,37,117,64,,,b,0,0.650503739802,,,2020_Mar_04_1111,59.9635351776,duckFrog,001,10,
frog,wnL.wav,20,landoltCTop.png,V2,duckFront.png,frogFront.png,HcongWN,h,-20,landoltCL.png,,,,,1,38,118,25,,,h,0,1.21783808849,,,2020_Mar_04_1111,59.9635351776,duckFrog,001,10,
frog,quackL.wav,-20,landoltCL.png,V2,frogFront.png,duckFront.png,HinCong,h,20,landoltCTop.png,,,,,1,39,119,30,,,h,0,1.53447772161,,,2020_Mar_04_1111,59.9635351776,duckFrog,001,10,
frog,wnL.wav,-20,landoltCR.png,V2,frogFront.png,duckFront.png,HinCongWN,h,20,landoltCTop.png,,,,,1,40,120,31,,,h,0,0.734208302863,,,2020_Mar_04_1111,59.9635351776,duckFrog,001,10,
duck,ribbitL.wav,-20,landoltCR.png,V2,duckFront.png,frogFront.png,LinCong,h,20,landoltCTop.png,,,,,1,41,121,6,,,h,0,1.18450163942,,,2020_Mar_04_1111,59.9635351776,duckFrog,001,10,
duck,wnL.wav,20,landoltCBottom.png,V2,frogFront.png,duckFront.png,LcongWN,b,-20,landoltCL.png,,,,,1,42,122,9,,,b,0,1.06753063953,,,2020_Mar_04_1111,59.9635351776,duckFrog,001,10,
frog,quackR.wav,20,landoltCTop.png,V2,duckFront.png,frogFront.png,HinCong,h,-20,landoltCR.png,,,,,1,43,123,74,,,h,0,0.750770042825,,,2020_Mar_04_1111,59.9635351776,duckFrog,001,10,
frog,quackL.wav,-20,landoltCL.png,V2,frogFront.png,duckFront.png,HinCong,h,20,landoltCTop.png,,,,,1,44,124,46,,,h,0,0.46714355622,,,2020_Mar_04_1111,59.9635351776,duckFrog,001,10,
frog,ribbitR.wav,-20,landoltCL.png,V2,frogFront.png,duckFront.png,Hcong,h,20,landoltCTop.png,,,,,1,45,125,60,,,h,0,1.03434081291,,,2020_Mar_04_1111,59.9635351776,duckFrog,001,10,
frog,wnL.wav,-20,landoltCR.png,V2,frogFront.png,duckFront.png,HinCongWN,h,20,landoltCTop.png,,,,,1,46,126,79,,,h,0,2.0518603641,,,2020_Mar_04_1111,59.9635351776,duckFrog,001,10,
frog,quackR.wav,20,landoltCTop.png,V2,duckFront.png,frogFront.png,HinCong,h,-20,landoltCR.png,,,,,1,47,127,26,,,h,0,0.96746007746,,,2020_Mar_04_1111,59.9635351776,duckFrog,001,10,
frog,wnL.wav,20,landoltCBottom.png,V2,duckFront.png,frogFront.png,HcongWN,b,-20,landoltCR.png,,,,,1,48,128,17,,,b,0,0.800874236418,,,2020_Mar_04_1111,59.9635351776,duckFrog,001,10,
frog,wnR.wav,20,landoltCBottom.png,V2,duckFront.png,frogFront.png,HinCongWN,b,-20,landoltCR.png,,,,,1,49,129,35,,,b,0,1.36800477988,,,2020_Mar_04_1111,59.9635351776,duckFrog,001,10,
frog,wnL.wav,20,landoltCTop.png,V2,duckFront.png,frogFront.png,HcongWN,h,-20,landoltCL.png,,,,,1,50,130,41,,,h,0,0.667430569709,,,2020_Mar_04_1111,59.9635351776,duckFrog,001,10,
frog,quackR.wav,20,landoltCBottom.png,V2,duckFront.png,frogFront.png,HinCong,b,-20,landoltCL.png,,,,,1,51,131,66,,,b,0,0.917621270521,,,2020_Mar_04_1111,59.9635351776,duckFrog,001,10,
frog,wnL.wav,20,landoltCBottom.png,V2,duckFront.png,frogFront.png,HcongWN,b,-20,landoltCR.png,,,,,1,52,132,33,,,b,0,0.650750065513,,,2020_Mar_04_1111,59.9635351776,duckFrog,001,10,
frog,ribbitR.wav,-20,landoltCL.png,V2,frogFront.png,duckFront.png,Hcong,h,20,landoltCTop.png,,,,,1,53,133,76,,,h,0,0.550388091302,,,2020_Mar_04_1111,59.9635351776,duckFrog,001,10,
frog,wnL.wav,-20,landoltCR.png,V2,frogFront.png,duckFront.png,HinCongWN,h,20,landoltCTop.png,,,,,1,54,134,63,,,h,0,0.717639598326,,,2020_Mar_04_1111,59.9635351776,duckFrog,001,10,
frog,quackL.wav,-20,landoltCL.png,V2,frogFront.png,duckFront.png,HinCong,b,20,landoltCBottom.png,,,,,1,55,135,54,,,b,0,0.750752448133,,,2020_Mar_04_1111,59.9635351776,duckFrog,001,10,
duck,quackL.wav,20,landoltCBottom.png,V2,frogFront.png,duckFront.png,Lcong,b,-20,landoltCR.png,,,,,1,56,136,8,,,b,0,1.18426631036,,,2020_Mar_04_1111,59.9635351776,duckFrog,001,10,
duck,wnR.wav,20,landoltCBottom.png,V2,frogFront.png,duckFront.png,LinCongWN,b,-20,landoltCL.png,,,,,1,57,137,11,,,b,0,0.750734853442,,,2020_Mar_04_1111,59.9635351776,duckFrog,001,10,
frog,wnR.wav,20,landoltCTop.png,V2,duckFront.png,frogFront.png,HinCongWN,h,-20,landoltCL.png,,,,,1,58,138,27,,,h,0,0.734122528724,,,2020_Mar_04_1111,59.9635351776,duckFrog,001,10,
duck,ribbitR.wav,20,landoltCTop.png,V2,frogFront.png,duckFront.png,LinCong,h,-20,landoltCL.png,,,,,1,59,139,2,,,h,0,1.43467511213,,,2020_Mar_04_1111,59.9635351776,duckFrog,001,10,
duck,wnL.wav,20,landoltCTop.png,V2,frogFront.png,duckFront.png,LcongWN,h,-20,landoltCR.png,,,,,1,60,140,1,,,h,0,0.650744933722,,,2020_Mar_04_1111,59.9635351776,duckFrog,001,10,
frog,ribbitR.wav,-20,landoltCL.png,V2,frogFront.png,duckFront.png,Hcong,b,20,landoltCBottom.png,,,,,1,61,141,36,,,b,0,1.13427464952,,,2020_Mar_04_1111,59.9635351776,duckFrog,001,10,
frog,ribbitL.wav,20,landoltCTop.png,V2,duckFront.png,frogFront.png,Hcong,h,-20,landoltCR.png,,,,,1,62,142,72,,,h,0,0.66713219299,,,2020_Mar_04_1111,59.9635351776,duckFrog,001,10,
frog,ribbitR.wav,-20,landoltCL.png,V2,frogFront.png,duckFront.png,Hcong,b,20,landoltCBottom.png,,,,,1,63,143,52,,,b,0,0.667087839684,,,2020_Mar_04_1111,59.9635351776,duckFrog,001,10,
frog,wnL.wav,20,landoltCBottom.png,V2,duckFront.png,frogFront.png,HcongWN,b,-20,landoltCR.png,,,,,1,64,144,49,,,b,0,0.66713842444,,,2020_Mar_04_1111,59.9635351776,duckFrog,001,10,
frog,wnR.wav,-20,landoltCR.png,V2,frogFront.png,duckFront.png,HcongWN,h,20,landoltCTop.png,,,,,1,65,145,29,,,h,0,0.733896730148,,,2020_Mar_04_1111,59.9635351776,duckFrog,001,10,
frog,ribbitL.wav,20,landoltCTop.png,V2,duckFront.png,frogFront.png,Hcong,h,-20,landoltCR.png,,,,,1,66,146,24,,,h,0,0.600465159747,,,2020_Mar_04_1111,59.9635351776,duckFrog,001,10,
frog,ribbitR.wav,-20,landoltCL.png,V2,frogFront.png,duckFront.png,Hcong,b,20,landoltCBottom.png,,,,,1,67,147,68,,,b,0,0.633813338616,,,2020_Mar_04_1111,59.9635351776,duckFrog,001,10,
duck,quackL.wav,20,landoltCTop.png,V2,frogFront.png,duckFront.png,Lcong,h,-20,landoltCL.png,,,,,1,68,148,0,,,h,0,1.31760550861,,,2020_Mar_04_1111,59.9635351776,duckFrog,001,10,
frog,ribbitR.wav,-20,landoltCL.png,V2,frogFront.png,duckFront.png,Hcong,h,20,landoltCTop.png,,,,,1,69,149,28,,,h,0,1.2675900216,,,2020_Mar_04_1111,59.9635351776,duckFrog,001,10,
frog,wnL.wav,-20,landoltCR.png,V2,frogFront.png,duckFront.png,HinCongWN,b,20,landoltCBottom.png,,,,,1,70,150,23,,,b,0,0.750832723948,,,2020_Mar_04_1111,59.9635351776,duckFrog,001,10,
duck,wnR.wav,20,landoltCTop.png,V2,frogFront.png,duckFront.png,LinCongWN,h,-20,landoltCR.png,,,,,1,71,151,3,,,h,0,1.25095790284,,,2020_Mar_04_1111,59.9635351776,duckFrog,001,10,
frog,wnR.wav,20,landoltCBottom.png,V2,duckFront.png,frogFront.png,HinCongWN,b,-20,landoltCR.png,,,,,1,72,152,51,,,b,0,0.700818336598,,,2020_Mar_04_1111,59.9635351776,duckFrog,001,10,
frog,ribbitL.wav,20,landoltCTop.png,V2,duckFront.png,frogFront.png,Hcong,h,-20,landoltCR.png,,,,,1,73,153,56,,,h,0,0.634175129526,,,2020_Mar_04_1111,59.9635351776,duckFrog,001,10,
frog,ribbitR.wav,-20,landoltCL.png,V2,frogFront.png,duckFront.png,Hcong,h,20,landoltCTop.png,,,,,1,74,154,44,,,h,0,0.517031848227,,,2020_Mar_04_1111,59.9635351776,duckFrog,001,10,
frog,ribbitL.wav,20,landoltCTop.png,V2,duckFront.png,frogFront.png,Hcong,h,-20,landoltCR.png,,,,,1,75,155,40,,,h,0,0.46710250192,,,2020_Mar_04_1111,59.9635351776,duckFrog,001,10,
frog,wnR.wav,-20,landoltCR.png,V2,frogFront.png,duckFront.png,HcongWN,h,20,landoltCTop.png,,,,,1,76,156,77,,,h,0,0.43369090886,,,2020_Mar_04_1111,59.9635351776,duckFrog,001,10,
frog,wnR.wav,-20,landoltCR.png,V2,frogFront.png,duckFront.png,HcongWN,h,20,landoltCTop.png,,,,,1,77,157,45,,,h,0,0.734122162161,,,2020_Mar_04_1111,59.9635351776,duckFrog,001,10,
frog,wnL.wav,-20,landoltCR.png,V2,frogFront.png,duckFront.png,HinCongWN,h,20,landoltCTop.png,,,,,1,78,158,47,,,h,0,0.583987727703,,,2020_Mar_04_1111,59.9635351776,duckFrog,001,10,
frog,wnR.wav,20,landoltCTop.png,V2,duckFront.png,frogFront.png,HinCongWN,h,-20,landoltCL.png,,,,,1,79,159,43,,,h,0,0.500292328506,,,2020_Mar_04_1111,59.9635351776,duckFrog,001,10,
frog,ribbitR.wav,-20,landoltCL.png,V2,frogFront.png,duckFront.png,Hcong,b,20,landoltCBottom.png,,,,,2,0,160,20,,,b,0,0.817292286374,,,2020_Mar_04_1111,59.9635351776,duckFrog,001,10,
frog,wnL.wav,-20,landoltCR.png,V2,frogFront.png,duckFront.png,HinCongWN,b,20,landoltCBottom.png,,,,,2,1,161,71,,,b,0,1.26781728643,,,2020_Mar_04_1111,59.9635351776,duckFrog,001,10,
frog,ribbitL.wav,20,landoltCTop.png,V2,duckFront.png,frogFront.png,Hcong,h,-20,landoltCR.png,,,,,2,2,162,72,,,h,0,1.33426365285,,,2020_Mar_04_1111,59.9635351776,duckFrog,001,10,
frog,quackR.wav,20,landoltCBottom.png,V2,duckFront.png,frogFront.png,HinCong,b,-20,landoltCL.png,,,,,2,3,163,18,,,b,0,0.950906768267,,,2020_Mar_04_1111,59.9635351776,duckFrog,001,10,
frog,wnR.wav,20,landoltCBottom.png,V2,duckFront.png,frogFront.png,HinCongWN,b,-20,landoltCR.png,,,,,2,4,164,67,,,b,0,0.700805507164,,,2020_Mar_04_1111,59.9635351776,duckFrog,001,10,
frog,wnR.wav,-20,landoltCR.png,V2,frogFront.png,duckFront.png,HcongWN,h,20,landoltCTop.png,,,,,2,5,165,45,,,h,0,1.71800982003,,,2020_Mar_04_1111,59.9635351776,duckFrog,001,10,
frog,wnL.wav,20,landoltCTop.png,V2,duckFront.png,frogFront.png,HcongWN,h,-20,landoltCL.png,,,,,2,6,166,57,,,h,0,0.650467450731,,,2020_Mar_04_1111,59.9635351776,duckFrog,001,10,
frog,wnL.wav,-20,landoltCR.png,V2,frogFront.png,duckFront.png,HinCongWN,b,20,landoltCBottom.png,,,,,2,7,167,23,,,b,0,1.35103323014,,,2020_Mar_04_1111,59.9635351776,duckFrog,001,10,
duck,wnL.wav,-20,landoltCL.png,V2,duckFront.png,frogFront.png,LinCongWN,b,20,landoltCBottom.png,,,,,2,8,168,15,,,b,0,1.45137247787,,,2020_Mar_04_1111,59.9635351776,duckFrog,001,10,
frog,quackL.wav,-20,landoltCL.png,V2,frogFront.png,duckFront.png,HinCong,h,20,landoltCTop.png,,,,,2,9,169,46,,,h,0,0.7675275238,,,2020_Mar_04_1111,59.9635351776,duckFrog,001,10,
frog,quackL.wav,-20,landoltCL.png,V2,frogFront.png,duckFront.png,HinCong,b,20,landoltCBottom.png,,,,,2,10,170,70,,,b,0,0.734283080325,,,2020_Mar_04_1111,59.9635351776,duckFrog,001,10,
duck,quackR.wav,-20,landoltCR.png,V2,duckFront.png,frogFront.png,Lcong,b,20,landoltCBottom.png,,,,,2,11,171,12,,,b,0,1.43471543328,,,2020_Mar_04_1111,59.9635351776,duckFrog,001,10,
duck,wnL.wav,20,landoltCTop.png,V2,frogFront.png,duckFront.png,LcongWN,h,-20,landoltCR.png,,,,,2,12,172,1,,,h,0,1.23434814403,,,2020_Mar_04_1111,59.9635351776,duckFrog,001,10,
frog,ribbitR.wav,-20,landoltCL.png,V2,frogFront.png,duckFront.png,Hcong,b,20,landoltCBottom.png,,,,,2,13,173,36,,,b,0,1.26764060635,,,2020_Mar_04_1111,59.9635351776,duckFrog,001,10,
frog,wnR.wav,20,landoltCBottom.png,V2,duckFront.png,frogFront.png,HinCongWN,b,-20,landoltCR.png,,,,,2,14,174,19,,,b,0,0.783861265838,,,2020_Mar_04_1111,59.9635351776,duckFrog,001,10,
frog,wnR.wav,-20,landoltCR.png,V2,frogFront.png,duckFront.png,HcongWN,b,20,landoltCBottom.png,,,,,2,15,175,69,,,b,0,1.43443941651,,,2020_Mar_04_1111,59.9635351776,duckFrog,001,10,
frog,wnR.wav,20,landoltCTop.png,V2,duckFront.png,frogFront.png,HinCongWN,h,-20,landoltCL.png,,,,,2,16,176,43,,,b,0,0.717189467396,,,2020_Mar_04_1111,59.9635351776,duckFrog,001,10,
frog,ribbitR.wav,-20,landoltCL.png,V2,frogFront.png,duckFront.png,Hcong,b,20,landoltCBottom.png,,,,,2,17,177,68,,,b,0,1.40107657539,,,2020_Mar_04_1111,59.9635351776,duckFrog,001,10,
frog,ribbitL.wav,20,landoltCTop.png,V2,duckFront.png,frogFront.png,Hcong,h,-20,landoltCR.png,,,,,2,18,178,24,,,h,0,1.03409888587,,,2020_Mar_04_1111,59.9635351776,duckFrog,001,10,
frog,quackR.wav,20,landoltCBottom.png,V2,duckFront.png,frogFront.png,HinCong,b,-20,landoltCL.png,,,,,2,19,179,66,,,b,0,1.61816505657,,,2020_Mar_04_1111,59.9635351776,duckFrog,001,10,
frog,wnR.wav,20,landoltCTop.png,V2,duckFront.png,frogFront.png,HinCongWN,h,-20,landoltCL.png,,,,,2,20,180,75,,,h,0,0.984505304979,,,2020_Mar_04_1111,59.9635351776,duckFrog,001,10,
frog,ribbitR.wav,-20,landoltCL.png,V2,frogFront.png,duckFront.png,Hcong,h,20,landoltCTop.png,,,,,2,21,181,44,,,h,0,0.600483854127,,,2020_Mar_04_1111,59.9635351776,duckFrog,001,10,
frog,ribbitR.wav,-20,landoltCL.png,V2,frogFront.png,duckFront.png,Hcong,h,20,landoltCTop.png,,,,,2,22,182,28,,,h,0,0.767684409831,,,2020_Mar_04_1111,59.9635351776,duckFrog,001,10,
frog,wnR.wav,-20,landoltCR.png,V2,frogFront.png,duckFront.png,HcongWN,b,20,landoltCBottom.png,,,,,2,23,183,53,,,b,0,0.767721065436,,,2020_Mar_04_1111,59.9635351776,duckFrog,001,10,
frog,wnL.wav,-20,landoltCR.png,V2,frogFront.png,duckFront.png,HinCongWN,h,20,landoltCTop.png,,,,,2,24,184,47,,,h,0,1.1678193025,,,2020_Mar_04_1111,59.9635351776,duckFrog,001,10,
frog,wnR.wav,-20,landoltCR.png,V2,frogFront.png,duckFront.png,HcongWN,b,20,landoltCBottom.png,,,,,2,25,185,21,,,b,0,1.10107932458,,,2020_Mar_04_1111,59.9635351776,duckFrog,001,10,
frog,ribbitL.wav,20,landoltCBottom.png,V2,duckFront.png,frogFront.png,Hcong,b,-20,landoltCL.png,,,,,2,26,186,32,,,b,0,0.767520925787,,,2020_Mar_04_1111,59.9635351776,duckFrog,001,10,
frog,quackL.wav,-20,landoltCL.png,V2,frogFront.png,duckFront.png,HinCong,b,20,landoltCBottom.png,,,,,2,27,187,38,,,b,0,1.117510204,,,2020_Mar_04_1111,59.9635351776,duckFrog,001,10,
duck,ribbitR.wav,20,landoltCBottom.png,V2,frogFront.png,duckFront.png,LinCong,b,-20,landoltCR.png,,,,,2,28,188,10,,,b,0,1.55134077076,,,2020_Mar_04_1111,59.9635351776,duckFrog,001,10,
frog,wnL.wav,-20,landoltCR.png,V2,frogFront.png,duckFront.png,HinCongWN,h,20,landoltCTop.png,,,,,2,29,189,31,,,h,0,0.984073501837,,,2020_Mar_04_1111,59.9635351776,duckFrog,001,10,
frog,wnL.wav,-20,landoltCR.png,V2,frogFront.png,duckFront.png,HinCongWN,h,20,landoltCTop.png,,,,,2,30,190,79,,,h,0,0.700712768419,,,2020_Mar_04_1111,59.9635351776,duckFrog,001,10,
duck,ribbitR.wav,20,landoltCTop.png,V2,frogFront.png,duckFront.png,LinCong,h,-20,landoltCL.png,,,,,2,31,191,2,,,h,0,1.41775414714,,,2020_Mar_04_1111,59.9635351776,duckFrog,001,10,
duck,wnL.wav,20,landoltCBottom.png,V2,frogFront.png,duckFront.png,LcongWN,b,-20,landoltCL.png,,,,,2,32,192,9,,,b,0,1.15113806521,,,2020_Mar_04_1111,59.9635351776,duckFrog,001,10,
duck,wnR.wav,20,landoltCTop.png,V2,frogFront.png,duckFront.png,LinCongWN,h,-20,landoltCR.png,,,,,2,33,193,3,,,h,0,1.51810805709,,,2020_Mar_04_1111,59.9635351776,duckFrog,001,10,
frog,wnR.wav,20,landoltCBottom.png,V2,duckFront.png,frogFront.png,HinCongWN,b,-20,landoltCR.png,,,,,2,34,194,51,,,b,0,0.784164774319,,,2020_Mar_04_1111,59.9635351776,duckFrog,001,10,
frog,quackL.wav,-20,landoltCL.png,V2,frogFront.png,duckFront.png,HinCong,h,20,landoltCTop.png,,,,,2,35,195,62,,,h,0,0.750503556512,,,2020_Mar_04_1111,59.9635351776,duckFrog,001,10,
frog,wnR.wav,20,landoltCTop.png,V2,duckFront.png,frogFront.png,HinCongWN,h,-20,landoltCL.png,,,,,2,36,196,27,,,h,0,0.667206970422,,,2020_Mar_04_1111,59.9635351776,duckFrog,001,10,
duck,wnR.wav,-20,landoltCL.png,V2,duckFront.png,frogFront.png,LcongWN,b,20,landoltCBottom.png,,,,,2,37,197,13,,,b,0,1.48445490352,,,2020_Mar_04_1111,59.9635351776,duckFrog,001,10,
duck,wnR.wav,20,landoltCBottom.png,V2,frogFront.png,duckFront.png,LinCongWN,b,-20,landoltCL.png,,,,,2,38,198,11,,,b,0,1.35099070962,,,2020_Mar_04_1111,59.9635351776,duckFrog,001,10,
frog,wnL.wav,20,landoltCTop.png,V2,duckFront.png,frogFront.png,HcongWN,h,-20,landoltCL.png,,,,,2,39,199,41,,,h,0,0.650678953622,,,2020_Mar_04_1111,59.9635351776,duckFrog,001,10,
frog,wnL.wav,20,landoltCBottom.png,V2,duckFront.png,frogFront.png,HcongWN,b,-20,landoltCR.png,,,,,2,40,200,17,,,b,0,0.53379409443,,,2020_Mar_04_1111,59.9635351776,duckFrog,001,10,
frog,ribbitR.wav,-20,landoltCL.png,V2,frogFront.png,duckFront.png,Hcong,b,20,landoltCBottom.png,,,,,2,41,201,52,,,b,0,0.516973932361,,,2020_Mar_04_1111,59.9635351776,duckFrog,001,10,
frog,wnL.wav,20,landoltCBottom.png,V2,duckFront.png,frogFront.png,HcongWN,b,-20,landoltCR.png,,,,,2,42,202,65,,,b,0,0.583710244711,,,2020_Mar_04_1111,59.9635351776,duckFrog,001,10,
frog,wnL.wav,-20,landoltCR.png,V2,frogFront.png,duckFront.png,HinCongWN,b,20,landoltCBottom.png,,,,,2,43,203,39,,,b,0,0.550437576399,,,2020_Mar_04_1111,59.9635351776,duckFrog,001,10,
duck,quackL.wav,20,landoltCBottom.png,V2,frogFront.png,duckFront.png,Lcong,b,-20,landoltCR.png,,,,,2,44,204,8,,,b,0,1.26759148785,,,2020_Mar_04_1111,59.9635351776,duckFrog,001,10,
frog,wnR.wav,-20,landoltCR.png,V2,frogFront.png,duckFront.png,HcongWN,h,20,landoltCTop.png,,,,,2,45,205,29,,,h,0,0.883753315051,,,2020_Mar_04_1111,59.9635351776,duckFrog,001,10,
frog,wnL.wav,20,landoltCBottom.png,V2,duckFront.png,frogFront.png,HcongWN,b,-20,landoltCR.png,,,,,2,46,206,33,,,b,0,0.617182319518,,,2020_Mar_04_1111,59.9635351776,duckFrog,001,10,
frog,wnR.wav,20,landoltCBottom.png,V2,duckFront.png,frogFront.png,HinCongWN,b,-20,landoltCR.png,,,,,2,47,207,35,,,b,0,0.600693157699,,,2020_Mar_04_1111,59.9635351776,duckFrog,001,10,
frog,wnL.wav,-20,landoltCR.png,V2,frogFront.png,duckFront.png,HinCongWN,b,20,landoltCBottom.png,,,,,2,48,208,55,,,b,0,0.700379568909,,,2020_Mar_04_1111,59.9635351776,duckFrog,001,10,
frog,ribbitL.wav,20,landoltCBottom.png,V2,duckFront.png,frogFront.png,Hcong,b,-20,landoltCL.png,,,,,2,49,209,64,,,b,0,1.25098502802,,,2020_Mar_04_1111,59.9635351776,duckFrog,001,10,
duck,wnR.wav,-20,landoltCL.png,V2,duckFront.png,frogFront.png,LcongWN,h,20,landoltCTop.png,,,,,2,50,210,5,,,h,0,1.91814727857,,,2020_Mar_04_1111,59.9635351776,duckFrog,001,10,
frog,quackL.wav,-20,landoltCL.png,V2,frogFront.png,duckFront.png,HinCong,h,20,landoltCTop.png,,,,,2,51,211,78,,,h,0,1.31791158297,,,2020_Mar_04_1111,59.9635351776,duckFrog,001,10,
frog,wnL.wav,20,landoltCBottom.png,V2,duckFront.png,frogFront.png,HcongWN,b,-20,landoltCR.png,,,,,2,52,212,49,,,b,0,0.633794644236,,,2020_Mar_04_1111,59.9635351776,duckFrog,001,10,
frog,quackR.wav,20,landoltCTop.png,V2,duckFront.png,frogFront.png,HinCong,h,-20,landoltCR.png,,,,,2,53,213,58,,,h,0,0.850814212841,,,2020_Mar_04_1111,59.9635351776,duckFrog,001,10,
frog,quackR.wav,20,landoltCTop.png,V2,duckFront.png,frogFront.png,HinCong,h,-20,landoltCR.png,,,,,2,54,214,74,,,h,0,0.817473731673,,,2020_Mar_04_1111,59.9635351776,duckFrog,001,10,
frog,quackL.wav,-20,landoltCL.png,V2,frogFront.png,duckFront.png,HinCong,b,20,landoltCBottom.png,,,,,2,55,215,54,,,b,0,0.884038129152,,,2020_Mar_04_1111,59.9635351776,duckFrog,001,10,
frog,ribbitL.wav,20,landoltCTop.png,V2,duckFront.png,frogFront.png,Hcong,h,-20,landoltCR.png,,,,,2,56,216,40,,,h,0,1.15085508383,,,2020_Mar_04_1111,59.9635351776,duckFrog,001,10,
duck,ribbitL.wav,-20,landoltCR.png,V2,duckFront.png,frogFront.png,LinCong,b,20,landoltCBottom.png,,,,,2,57,217,14,,,b,0,1.8013382965,,,2020_Mar_04_1111,59.9635351776,duckFrog,001,10,
frog,wnR.wav,20,landoltCTop.png,V2,duckFront.png,frogFront.png,HinCongWN,h,-20,landoltCL.png,,,,,2,58,218,59,,,h,0,0.817435243283,,,2020_Mar_04_1111,59.9635351776,duckFrog,001,10,
frog,wnR.wav,-20,landoltCR.png,V2,frogFront.png,duckFront.png,HcongWN,h,20,landoltCTop.png,,,,,2,59,219,61,,,h,0,0.817276891001,,,2020_Mar_04_1111,59.9635351776,duckFrog,001,10,
frog,wnL.wav,20,landoltCTop.png,V2,duckFront.png,frogFront.png,HcongWN,h,-20,landoltCL.png,,,,,2,60,220,25,,,h,0,0.65049091031,,,2020_Mar_04_1111,59.9635351776,duckFrog,001,10,
frog,quackR.wav,20,landoltCBottom.png,V2,duckFront.png,frogFront.png,HinCong,b,-20,landoltCL.png,,,,,2,61,221,50,,,b,0,0.917614305974,,,2020_Mar_04_1111,59.9635351776,duckFrog,001,10,
duck,ribbitL.wav,-20,landoltCR.png,V2,duckFront.png,frogFront.png,LinCong,h,20,landoltCTop.png,,,,,2,62,222,6,,,h,0,1.33434539486,,,2020_Mar_04_1111,59.9635351776,duckFrog,001,10,
frog,ribbitL.wav,20,landoltCBottom.png,V2,duckFront.png,frogFront.png,Hcong,b,-20,landoltCL.png,,,,,2,63,223,16,,,b,0,1.21777907296,,,2020_Mar_04_1111,59.9635351776,duckFrog,001,10,
frog,quackL.wav,-20,landoltCL.png,V2,frogFront.png,duckFront.png,HinCong,b,20,landoltCBottom.png,,,,,2,64,224,22,,,h,0,0.734077808855,,,2020_Mar_04_1111,59.9635351776,duckFrog,001,10,
duck,wnL.wav,-20,landoltCL.png,V2,duckFront.png,frogFront.png,LinCongWN,h,20,landoltCTop.png,,,,,2,65,225,7,,,h,0,1.58483483896,,,2020_Mar_04_1111,59.9635351776,duckFrog,001,10,
frog,quackR.wav,20,landoltCBottom.png,V2,duckFront.png,frogFront.png,HinCong,b,-20,landoltCL.png,,,,,2,66,226,34,,,b,0,1.01747299856,,,2020_Mar_04_1111,59.9635351776,duckFrog,001,10,
duck,quackL.wav,20,landoltCTop.png,V2,frogFront.png,duckFront.png,Lcong,h,-20,landoltCL.png,,,,,2,67,227,0,,,h,0,1.61833917073,,,2020_Mar_04_1111,59.9635351776,duckFrog,001,10,
frog,ribbitL.wav,20,landoltCTop.png,V2,duckFront.png,frogFront.png,Hcong,h,-20,landoltCR.png,,,,,2,68,228,56,,,h,0,0.867591121263,,,2020_Mar_04_1111,59.9635351776,duckFrog,001,10,
frog,wnR.wav,-20,landoltCR.png,V2,frogFront.png,duckFront.png,HcongWN,h,20,landoltCTop.png,,,,,2,69,229,77,,,h,0,0.93407707577,,,2020_Mar_04_1111,59.9635351776,duckFrog,001,10,
duck,quackR.wav,-20,landoltCR.png,V2,duckFront.png,frogFront.png,Lcong,h,20,landoltCTop.png,,,,,2,70,230,4,,,h,0,1.11773930158,,,2020_Mar_04_1111,59.9635351776,duckFrog,001,10,
frog,ribbitR.wav,-20,landoltCL.png,V2,frogFront.png,duckFront.png,Hcong,h,20,landoltCTop.png,,,,,2,71,231,76,,,h,0,0.950960285467,,,2020_Mar_04_1111,59.9635351776,duckFrog,001,10,
frog,quackR.wav,20,landoltCTop.png,V2,duckFront.png,frogFront.png,HinCong,h,-20,landoltCR.png,,,,,2,72,232,42,,,h,0,0.98408009985,,,2020_Mar_04_1111,59.9635351776,duckFrog,001,10,
frog,wnL.wav,-20,landoltCR.png,V2,frogFront.png,duckFront.png,HinCongWN,h,20,landoltCTop.png,,,,,2,73,233,63,,,h,0,0.833972057415,,,2020_Mar_04_1111,59.9635351776,duckFrog,001,10,
frog,ribbitL.wav,20,landoltCBottom.png,V2,duckFront.png,frogFront.png,Hcong,b,-20,landoltCL.png,,,,,2,74,234,48,,,b,0,0.900696273398,,,2020_Mar_04_1111,59.9635351776,duckFrog,001,10,
frog,wnL.wav,20,landoltCTop.png,V2,duckFront.png,frogFront.png,HcongWN,h,-20,landoltCL.png,,,,,2,75,235,73,,,h,0,0.700759687606,,,2020_Mar_04_1111,59.9635351776,duckFrog,001,10,
frog,ribbitR.wav,-20,landoltCL.png,V2,frogFront.png,duckFront.png,Hcong,h,20,landoltCTop.png,,,,,2,76,236,60,,,h,0,0.683859249781,,,2020_Mar_04_1111,59.9635351776,duckFrog,001,10,
frog,wnR.wav,-20,landoltCR.png,V2,frogFront.png,duckFront.png,HcongWN,b,20,landoltCBottom.png,,,,,2,77,237,37,,,b,0,0.66735102699,,,2020_Mar_04_1111,59.9635351776,duckFrog,001,10,
frog,quackR.wav,20,landoltCTop.png,V2,duckFront.png,frogFront.png,HinCong,h,-20,landoltCR.png,,,,,2,78,238,26,,,h,0,0.750520051515,,,2020_Mar_04_1111,59.9635351776,duckFrog,001,10,
frog,quackL.wav,-20,landoltCL.png,V2,frogFront.png,duckFront.png,HinCong,h,20,landoltCTop.png,,,,,2,79,239,30,,,h,0,0.73390076225,,,2020_Mar_04_1111,59.9635351776,duckFrog,001,10,
duck,ribbitR.wav,20,landoltCTop.png,V2,frogFront.png,duckFront.png,LinCong,h,-20,landoltCL.png,,,,,3,0,240,2,,,h,0,2.18507310047,,,2020_Mar_04_1111,59.9635351776,duckFrog,001,10,
frog,quackL.wav,-20,landoltCL.png,V2,frogFront.png,duckFront.png,HinCong,b,20,landoltCBottom.png,,,,,3,1,241,70,,,b,0,1.50113247521,,,2020_Mar_04_1111,59.9635351776,duckFrog,001,10,
frog,wnL.wav,20,landoltCBottom.png,V2,duckFront.png,frogFront.png,HcongWN,b,-20,landoltCR.png,,,,,3,2,242,65,,,b,0,0.617183419177,,,2020_Mar_04_1111,59.9635351776,duckFrog,001,10,
frog,ribbitL.wav,20,landoltCBottom.png,V2,duckFront.png,frogFront.png,Hcong,b,-20,landoltCL.png,,,,,3,3,243,16,,,b,0,0.650915748905,,,2020_Mar_04_1111,59.9635351776,duckFrog,001,10,
frog,wnR.wav,20,landoltCTop.png,V2,duckFront.png,frogFront.png,HinCongWN,h,-20,landoltCL.png,,,,,3,4,244,75,,,h,0,0.767671946931,,,2020_Mar_04_1111,59.9635351776,duckFrog,001,10,
frog,wnL.wav,-20,landoltCR.png,V2,frogFront.png,duckFront.png,HinCongWN,h,20,landoltCTop.png,,,,,3,5,245,79,,,h,0,0.733866305964,,,2020_Mar_04_1111,59.9635351776,duckFrog,001,10,
frog,wnL.wav,20,landoltCTop.png,V2,duckFront.png,frogFront.png,HcongWN,h,-20,landoltCL.png,,,,,3,6,246,25,,,h,0,0.533668732212,,,2020_Mar_04_1111,59.9635351776,duckFrog,001,10,
duck,ribbitL.wav,-20,landoltCR.png,V2,duckFront.png,frogFront.png,LinCong,b,20,landoltCBottom.png,,,,,3,7,247,14,,,b,0,1.05084866914,,,2020_Mar_04_1111,59.9635351776,duckFrog,001,10,
duck,quackL.wav,20,landoltCTop.png,V2,frogFront.png,duckFront.png,Lcong,h,-20,landoltCL.png,,,,,3,8,248,0,,,h,0,1.20092445464,,,2020_Mar_04_1111,59.9635351776,duckFrog,001,10,
frog,ribbitL.wav,20,landoltCBottom.png,V2,duckFront.png,frogFront.png,Hcong,b,-20,landoltCL.png,,,,,3,9,249,48,,,b,0,0.650695815217,,,2020_Mar_04_1111,59.9635351776,duckFrog,001,10,
frog,wnR.wav,20,landoltCBottom.png,V2,duckFront.png,frogFront.png,HinCongWN,b,-20,landoltCR.png,,,,,3,10,250,67,,,b,0,0.60088230067,,,2020_Mar_04_1111,59.9635351776,duckFrog,001,10,
frog,ribbitR.wav,-20,landoltCL.png,V2,frogFront.png,duckFront.png,Hcong,h,20,landoltCTop.png,,,,,3,11,251,44,,,h,0,0.617122204334,,,2020_Mar_04_1111,59.9635351776,duckFrog,001,10,
frog,ribbitR.wav,-20,landoltCL.png,V2,frogFront.png,duckFront.png,Hcong,b,20,landoltCBottom.png,,,,,3,12,252,52,,,b,0,0.667427270673,,,2020_Mar_04_1111,59.9635351776,duckFrog,001,10,
frog,wnL.wav,-20,landoltCR.png,V2,frogFront.png,duckFront.png,HinCongWN,b,20,landoltCBottom.png,,,,,3,13,253,39,,,b,0,0.550686468021,,,2020_Mar_04_1111,59.9635351776,duckFrog,001,10,
frog,wnR.wav,20,landoltCBottom.png,V2,duckFront.png,frogFront.png,HinCongWN,b,-20,landoltCR.png,,,,,3,14,254,51,,,b,0,0.516740436084,,,2020_Mar_04_1111,59.9635351776,duckFrog,001,10,
duck,wnL.wav,-20,landoltCL.png,V2,duckFront.png,frogFront.png,LinCongWN,b,20,landoltCBottom.png,,,,,3,15,255,15,,,b,0,1.38438140901,,,2020_Mar_04_1111,59.9635351776,duckFrog,001,10,
frog,ribbitR.wav,-20,landoltCL.png,V2,frogFront.png,duckFront.png,Hcong,b,20,landoltCBottom.png,,,,,3,16,256,36,,,b,0,0.534011462209,,,2020_Mar_04_1111,59.9635351776,duckFrog,001,10,
frog,quackL.wav,-20,landoltCL.png,V2,frogFront.png,duckFront.png,HinCong,h,20,landoltCTop.png,,,,,3,17,257,46,,,h,0,0.784023283661,,,2020_Mar_04_1111,59.9635351776,duckFrog,001,10,
frog,ribbitL.wav,20,landoltCBottom.png,V2,duckFront.png,frogFront.png,Hcong,b,-20,landoltCL.png,,,,,3,18,258,64,,,b,0,0.433548318513,,,2020_Mar_04_1111,59.9635351776,duckFrog,001,10,
frog,wnR.wav,-20,landoltCR.png,V2,frogFront.png,duckFront.png,HcongWN,h,20,landoltCTop.png,,,,,3,19,259,77,,,h,0,0.70056614597,,,2020_Mar_04_1111,59.9635351776,duckFrog,001,10,
frog,wnL.wav,-20,landoltCR.png,V2,frogFront.png,duckFront.png,HinCongWN,h,20,landoltCTop.png,,,,,3,20,260,47,,,h,0,1.28462022034,,,2020_Mar_04_1111,59.9635351776,duckFrog,001,10,
frog,ribbitL.wav,20,landoltCTop.png,V2,duckFront.png,frogFront.png,Hcong,h,-20,landoltCR.png,,,,,3,21,261,24,,,h,0,0.683820028265,,,2020_Mar_04_1111,59.9635351776,duckFrog,001,10,
frog,quackL.wav,-20,landoltCL.png,V2,frogFront.png,duckFront.png,HinCong,h,20,landoltCTop.png,,,,,3,22,262,78,,,h,0,0.567069328594,,,2020_Mar_04_1111,59.9635351776,duckFrog,001,10,
frog,wnR.wav,20,landoltCBottom.png,V2,duckFront.png,frogFront.png,HinCongWN,b,-20,landoltCR.png,,,,,3,23,263,19,,,b,0,0.700446282135,,,2020_Mar_04_1111,59.9635351776,duckFrog,001,10,
frog,wnR.wav,-20,landoltCR.png,V2,frogFront.png,duckFront.png,HcongWN,b,20,landoltCBottom.png,,,,,3,24,264,37,,,b,0,0.550382959511,,,2020_Mar_04_1111,59.9635351776,duckFrog,001,10,
frog,ribbitR.wav,-20,landoltCL.png,V2,frogFront.png,duckFront.png,Hcong,h,20,landoltCTop.png,,,,,3,25,265,60,,,h,0,0.817529448192,,,2020_Mar_04_1111,59.9635351776,duckFrog,001,10,
frog,wnR.wav,-20,landoltCR.png,V2,frogFront.png,duckFront.png,HcongWN,b,20,landoltCBottom.png,,,,,3,26,266,53,,,b,0,0.383885458548,,,2020_Mar_04_1111,59.9635351776,duckFrog,001,10,
frog,quackL.wav,-20,landoltCL.png,V2,frogFront.png,duckFront.png,HinCong,b,20,landoltCBottom.png,,,,,3,27,267,38,,,b,0,0.650727705593,,,2020_Mar_04_1111,59.9635351776,duckFrog,001,10,
frog,quackR.wav,20,landoltCBottom.png,V2,duckFront.png,frogFront.png,HinCong,b,-20,landoltCL.png,,,,,3,28,268,50,,,b,0,0.733835148712,,,2020_Mar_04_1111,59.9635351776,duckFrog,001,10,
frog,wnR.wav,20,landoltCBottom.png,V2,duckFront.png,frogFront.png,HinCongWN,b,-20,landoltCR.png,,,,,3,29,269,35,,,b,0,0.73411079892,,,2020_Mar_04_1111,59.9635351776,duckFrog,001,10,
frog,wnL.wav,20,landoltCTop.png,V2,duckFront.png,frogFront.png,HcongWN,h,-20,landoltCL.png,,,,,3,30,270,57,,,h,0,0.650772058871,,,2020_Mar_04_1111,59.9635351776,duckFrog,001,10,
frog,wnL.wav,20,landoltCTop.png,V2,duckFront.png,frogFront.png,HcongWN,h,-20,landoltCL.png,,,,,3,31,271,73,,,h,0,0.717414166284,,,2020_Mar_04_1111,59.9635351776,duckFrog,001,10,
frog,wnL.wav,-20,landoltCR.png,V2,frogFront.png,duckFront.png,HinCongWN,b,20,landoltCBottom.png,,,,,3,32,272,71,,,b,0,0.550408618466,,,2020_Mar_04_1111,59.9635351776,duckFrog,001,10,
frog,ribbitR.wav,-20,landoltCL.png,V2,frogFront.png,duckFront.png,Hcong,b,20,landoltCBottom.png,,,,,3,33,273,68,,,b,0,0.600733112282,,,2020_Mar_04_1111,59.9635351776,duckFrog,001,10,
frog,wnL.wav,20,landoltCBottom.png,V2,duckFront.png,frogFront.png,HcongWN,b,-20,landoltCR.png,,,,,3,34,274,33,,,b,0,0.533688526251,,,2020_Mar_04_1111,59.9635351776,duckFrog,001,10,
frog,ribbitR.wav,-20,landoltCL.png,V2,frogFront.png,duckFront.png,Hcong,h,20,landoltCTop.png,,,,,3,35,275,76,,,h,0,0.733857875195,,,2020_Mar_04_1111,59.9635351776,duckFrog,001,10,
duck,wnR.wav,20,landoltCBottom.png,V2,frogFront.png,duckFront.png,LinCongWN,b,-20,landoltCL.png,,,,,3,36,276,11,,,b,0,0.600500715693,,,2020_Mar_04_1111,59.9635351776,duckFrog,001,10,
frog,quackR.wav,20,landoltCBottom.png,V2,duckFront.png,frogFront.png,HinCong,b,-20,landoltCL.png,,,,,3,37,277,34,,,b,0,0.817498290911,,,2020_Mar_04_1111,59.9635351776,duckFrog,001,10,
frog,ribbitR.wav,-20,landoltCL.png,V2,frogFront.png,duckFront.png,Hcong,h,20,landoltCTop.png,,,,,3,38,278,28,,,h,0,0.767256638792,,,2020_Mar_04_1111,59.9635351776,duckFrog,001,10,
frog,wnL.wav,20,landoltCBottom.png,V2,duckFront.png,frogFront.png,HcongWN,b,-20,landoltCR.png,,,,,3,39,279,49,,,b,0,0.617080783471,,,2020_Mar_04_1111,59.9635351776,duckFrog,001,10,
duck,quackR.wav,-20,landoltCR.png,V2,duckFront.png,frogFront.png,Lcong,h,20,landoltCTop.png,,,,,3,40,280,4,,,h,0,0.967450547003,,,2020_Mar_04_1111,59.9635351776,duckFrog,001,10,
frog,wnR.wav,-20,landoltCR.png,V2,frogFront.png,duckFront.png,HcongWN,h,20,landoltCTop.png,,,,,3,41,281,45,,,h,0,1.08265767869,,,2020_Mar_04_1111,59.9635351776,duckFrog,001,10,
frog,quackL.wav,-20,landoltCL.png,V2,frogFront.png,duckFront.png,HinCong,b,20,landoltCBottom.png,,,,,3,42,282,54,,,b,0,0.634023741848,,,2020_Mar_04_1111,59.9635351776,duckFrog,001,10,
frog,ribbitR.wav,-20,landoltCL.png,V2,frogFront.png,duckFront.png,Hcong,b,20,landoltCBottom.png,,,,,3,43,283,20,,,b,0,0.617292286392,,,2020_Mar_04_1111,59.9635351776,duckFrog,001,10,
frog,quackR.wav,20,landoltCTop.png,V2,duckFront.png,frogFront.png,HinCong,h,-20,landoltCR.png,,,,,3,44,284,26,,,h,0,0.767263236805,,,2020_Mar_04_1111,59.9635351776,duckFrog,001,10,
frog,quackR.wav,20,landoltCTop.png,V2,duckFront.png,frogFront.png,HinCong,h,-20,landoltCR.png,,,,,3,45,285,74,,,h,0,0.73416688203,,,2020_Mar_04_1111,59.9635351776,duckFrog,001,10,
duck,wnL.wav,20,landoltCBottom.png,V2,frogFront.png,duckFront.png,LcongWN,b,-20,landoltCL.png,,,,,3,46,286,9,,,b,0,1.26794631418,,,2020_Mar_04_1111,59.9635351776,duckFrog,001,10,
frog,wnL.wav,20,landoltCBottom.png,V2,duckFront.png,frogFront.png,HcongWN,b,-20,landoltCR.png,,,,,3,47,287,17,,,b,0,0.43391230877,,,2020_Mar_04_1111,59.9635351776,duckFrog,001,10,
frog,wnL.wav,-20,landoltCR.png,V2,frogFront.png,duckFront.png,HinCongWN,h,20,landoltCTop.png,,,,,3,48,288,63,,,h,0,0.717198264727,,,2020_Mar_04_1111,59.9635351776,duckFrog,001,10,
frog,wnR.wav,20,landoltCTop.png,V2,duckFront.png,frogFront.png,HinCongWN,h,-20,landoltCL.png,,,,,3,49,289,43,,,h,0,0.617102776858,,,2020_Mar_04_1111,59.9635351776,duckFrog,001,10,
duck,ribbitL.wav,-20,landoltCR.png,V2,duckFront.png,frogFront.png,LinCong,h,20,landoltCTop.png,,,,,3,50,290,6,,,h,0,1.21767570413,,,2020_Mar_04_1111,59.9635351776,duckFrog,001,10,
duck,wnR.wav,20,landoltCTop.png,V2,frogFront.png,duckFront.png,LinCongWN,h,-20,landoltCR.png,,,,,3,51,291,3,,,h,0,1.28425623008,,,2020_Mar_04_1111,59.9635351776,duckFrog,001,10,
frog,ribbitL.wav,20,landoltCBottom.png,V2,duckFront.png,frogFront.png,Hcong,b,-20,landoltCL.png,,,,,3,52,292,32,,,b,0,1.05108839684,,,2020_Mar_04_1111,59.9635351776,duckFrog,001,10,
duck,wnL.wav,-20,landoltCL.png,V2,duckFront.png,frogFront.png,LinCongWN,h,20,landoltCTop.png,,,,,3,53,293,7,,,h,0,1.20092702052,,,2020_Mar_04_1111,59.9635351776,duckFrog,001,10,
frog,ribbitL.wav,20,landoltCTop.png,V2,duckFront.png,frogFront.png,Hcong,h,-20,landoltCR.png,,,,,3,54,294,40,,,h,0,0.750603259774,,,2020_Mar_04_1111,59.9635351776,duckFrog,001,10,
frog,wnL.wav,-20,landoltCR.png,V2,frogFront.png,duckFront.png,HinCongWN,b,20,landoltCBottom.png,,,,,3,55,295,55,,,b,0,0.850636799674,,,2020_Mar_04_1111,59.9635351776,duckFrog,001,10,
frog,wnR.wav,-20,landoltCR.png,V2,frogFront.png,duckFront.png,HcongWN,h,20,landoltCTop.png,,,,,3,56,296,29,,,h,0,0.667574992811,,,2020_Mar_04_1111,59.9635351776,duckFrog,001,10,
frog,quackR.wav,20,landoltCBottom.png,V2,duckFront.png,frogFront.png,HinCong,b,-20,landoltCL.png,,,,,3,57,297,66,,,b,0,0.567096820334,,,2020_Mar_04_1111,59.9635351776,duckFrog,001,10,
frog,wnR.wav,-20,landoltCR.png,V2,frogFront.png,duckFront.png,HcongWN,b,20,landoltCBottom.png,,,,,3,58,298,69,,,b,0,0.517094529321,,,2020_Mar_04_1111,59.9635351776,duckFrog,001,10,
duck,quackL.wav,20,landoltCBottom.png,V2,frogFront.png,duckFront.png,Lcong,b,-20,landoltCR.png,,,,,3,59,299,8,,,b,0,3.26923109349,,,2020_Mar_04_1111,59.9635351776,duckFrog,001,10,
frog,wnL.wav,-20,landoltCR.png,V2,frogFront.png,duckFront.png,HinCongWN,b,20,landoltCBottom.png,,,,,3,60,300,23,,,b,0,0.900637257873,,,2020_Mar_04_1111,59.9635351776,duckFrog,001,10,
frog,wnL.wav,20,landoltCTop.png,V2,duckFront.png,frogFront.png,HcongWN,h,-20,landoltCL.png,,,,,3,61,301,41,,,h,0,1.95153834453,,,2020_Mar_04_1111,59.9635351776,duckFrog,001,10,
duck,quackR.wav,-20,landoltCR.png,V2,duckFront.png,frogFront.png,Lcong,b,20,landoltCBottom.png,,,,,3,62,302,12,,,b,0,1.83462012871,,,2020_Mar_04_1111,59.9635351776,duckFrog,001,10,
frog,wnR.wav,20,landoltCTop.png,V2,duckFront.png,frogFront.png,HinCongWN,h,-20,landoltCL.png,,,,,3,63,303,59,,,h,0,1.01743597636,,,2020_Mar_04_1111,59.9635351776,duckFrog,001,10,
frog,wnR.wav,20,landoltCTop.png,V2,duckFront.png,frogFront.png,HinCongWN,h,-20,landoltCL.png,,,,,3,64,304,27,,,h,0,2.50233331317,,,2020_Mar_04_1111,59.9635351776,duckFrog,001,10,
duck,wnL.wav,20,landoltCTop.png,V2,frogFront.png,duckFront.png,LcongWN,h,-20,landoltCR.png,,,,,3,65,305,1,,,h,0,1.28435886579,,,2020_Mar_04_1111,59.9635351776,duckFrog,001,10,
duck,wnR.wav,-20,landoltCL.png,V2,duckFront.png,frogFront.png,LcongWN,b,20,landoltCBottom.png,,,,,3,66,306,13,,,b,0,1.86813289128,,,2020_Mar_04_1111,59.9635351776,duckFrog,001,10,
duck,wnR.wav,-20,landoltCL.png,V2,duckFront.png,frogFront.png,LcongWN,h,20,landoltCTop.png,,,,,3,67,307,5,,,h,0,0.750802666327,,,2020_Mar_04_1111,59.9635351776,duckFrog,001,10,
duck,ribbitR.wav,20,landoltCBottom.png,V2,frogFront.png,duckFront.png,LinCong,b,-20,landoltCR.png,,,,,3,68,308,10,,,b,0,0.750544610812,,,2020_Mar_04_1111,59.9635351776,duckFrog,001,10,
frog,ribbitL.wav,20,landoltCTop.png,V2,duckFront.png,frogFront.png,Hcong,h,-20,landoltCR.png,,,,,3,69,309,72,,,h,0,1.33463057555,,,2020_Mar_04_1111,59.9635351776,duckFrog,001,10,
frog,wnR.wav,-20,landoltCR.png,V2,frogFront.png,duckFront.png,HcongWN,b,20,landoltCBottom.png,,,,,3,70,310,21,,,b,0,1.13435419221,,,2020_Mar_04_1111,59.9635351776,duckFrog,001,10,
frog,quackR.wav,20,landoltCTop.png,V2,duckFront.png,frogFront.png,HinCong,h,-20,landoltCR.png,,,,,3,71,311,58,,,h,0,0.700497966522,,,2020_Mar_04_1111,59.9635351776,duckFrog,001,10,
frog,quackL.wav,-20,landoltCL.png,V2,frogFront.png,duckFront.png,HinCong,b,20,landoltCBottom.png,,,,,3,72,312,22,,,b,0,0.633808573388,,,2020_Mar_04_1111,59.9635351776,duckFrog,001,10,
frog,ribbitL.wav,20,landoltCTop.png,V2,duckFront.png,frogFront.png,Hcong,h,-20,landoltCR.png,,,,,3,73,313,56,,,h,0,0.600412375672,,,2020_Mar_04_1111,59.9635351776,duckFrog,001,10,
frog,quackR.wav,20,landoltCBottom.png,V2,duckFront.png,frogFront.png,HinCong,b,-20,landoltCL.png,,,,,3,74,314,18,,,b,0,1.10103460474,,,2020_Mar_04_1111,59.9635351776,duckFrog,001,10,
frog,quackL.wav,-20,landoltCL.png,V2,frogFront.png,duckFront.png,HinCong,h,20,landoltCTop.png,,,,,3,75,315,62,,,h,0,1.38437884313,,,2020_Mar_04_1111,59.9635351776,duckFrog,001,10,
frog,quackR.wav,20,landoltCTop.png,V2,duckFront.png,frogFront.png,HinCong,h,-20,landoltCR.png,,,,,3,76,316,42,,,h,0,0.567105251102,,,2020_Mar_04_1111,59.9635351776,duckFrog,001,10,
frog,wnL.wav,-20,landoltCR.png,V2,frogFront.png,duckFront.png,HinCongWN,h,20,landoltCTop.png,,,,,3,77,317,31,,,h,0,0.683779340528,,,2020_Mar_04_1111,59.9635351776,duckFrog,001,10,
frog,wnR.wav,-20,landoltCR.png,V2,frogFront.png,duckFront.png,HcongWN,h,20,landoltCTop.png,,,,,3,78,318,61,,,h,0,0.650799917174,,,2020_Mar_04_1111,59.9635351776,duckFrog,001,10,
frog,quackL.wav,-20,landoltCL.png,V2,frogFront.png,duckFront.png,HinCong,h,20,landoltCTop.png,,,,,3,79,319,30,,,h,0,0.600803124515,,,2020_Mar_04_1111,59.9635351776,duckFrog,001,10,
frog,wnL.wav,20,landoltCBottom.png,V2,duckFront.png,frogFront.png,HcongWN,b,-20,landoltCR.png,,,,,4,0,320,49,,,b,0,0.700614531379,,,2020_Mar_04_1111,59.9635351776,duckFrog,001,10,
frog,quackL.wav,-20,landoltCL.png,V2,frogFront.png,duckFront.png,HinCong,b,20,landoltCBottom.png,,,,,4,1,321,38,,,b,0,0.95067730415,,,2020_Mar_04_1111,59.9635351776,duckFrog,001,10,
frog,wnL.wav,20,landoltCBottom.png,V2,duckFront.png,frogFront.png,HcongWN,b,-20,landoltCR.png,,,,,4,2,322,33,,,b,0,0.467041287047,,,2020_Mar_04_1111,59.9635351776,duckFrog,001,10,
frog,ribbitR.wav,-20,landoltCL.png,V2,frogFront.png,duckFront.png,Hcong,b,20,landoltCBottom.png,,,,,4,3,323,52,,,b,0,0.667157485354,,,2020_Mar_04_1111,59.9635351776,duckFrog,001,10,
frog,wnL.wav,-20,landoltCR.png,V2,frogFront.png,duckFront.png,HinCongWN,b,20,landoltCBottom.png,,,,,4,4,324,71,,,b,0,0.517309697781,,,2020_Mar_04_1111,59.9635351776,duckFrog,001,10,
frog,ribbitL.wav,20,landoltCTop.png,V2,duckFront.png,frogFront.png,Hcong,h,-20,landoltCR.png,,,,,4,5,325,72,,,h,0,0.667139890633,,,2020_Mar_04_1111,59.9635351776,duckFrog,001,10,
frog,quackL.wav,-20,landoltCL.png,V2,frogFront.png,duckFront.png,HinCong,b,20,landoltCBottom.png,,,,,4,6,326,54,,,b,0,0.466992168542,,,2020_Mar_04_1111,59.9635351776,duckFrog,001,10,
frog,wnR.wav,-20,landoltCR.png,V2,frogFront.png,duckFront.png,HcongWN,h,20,landoltCTop.png,,,,,4,7,327,61,,,h,0,0.758397709753,,,2020_Mar_04_1111,59.9635351776,duckFrog,001,10,
frog,wnL.wav,-20,landoltCR.png,V2,frogFront.png,duckFront.png,HinCongWN,b,20,landoltCBottom.png,,,,,4,8,328,39,,,b,0,0.667392447824,,,2020_Mar_04_1111,59.9635351776,duckFrog,001,10,
frog,quackR.wav,20,landoltCBottom.png,V2,duckFront.png,frogFront.png,HinCong,b,-20,landoltCL.png,,,,,4,9,329,34,,,b,0,0.733842113288,,,2020_Mar_04_1111,59.9635351776,duckFrog,001,10,
duck,wnL.wav,-20,landoltCL.png,V2,duckFront.png,frogFront.png,LinCongWN,h,20,landoltCTop.png,,,,,4,10,330,7,,,h,0,1.35106805299,,,2020_Mar_04_1111,59.9635351776,duckFrog,001,10,
frog,quackL.wav,-20,landoltCL.png,V2,frogFront.png,duckFront.png,HinCong,b,20,landoltCBottom.png,,,,,4,11,331,22,,,b,0,0.600649904052,,,2020_Mar_04_1111,59.9635351776,duckFrog,001,10,
frog,ribbitR.wav,-20,landoltCL.png,V2,frogFront.png,duckFront.png,Hcong,h,20,landoltCTop.png,,,,,4,12,332,60,,,h,0,0.717410134181,,,2020_Mar_04_1111,59.9635351776,duckFrog,001,10,
duck,ribbitL.wav,-20,landoltCR.png,V2,duckFront.png,frogFront.png,LinCong,h,20,landoltCTop.png,,,,,4,13,333,6,,,h,0,1.30124500796,,,2020_Mar_04_1111,59.9635351776,duckFrog,001,10,
duck,wnR.wav,-20,landoltCL.png,V2,duckFront.png,frogFront.png,LcongWN,b,20,landoltCBottom.png,,,,,4,14,334,13,,,b,0,1.40134526108,,,2020_Mar_04_1111,59.9635351776,duckFrog,001,10,
duck,ribbitR.wav,20,landoltCBottom.png,V2,frogFront.png,duckFront.png,LinCong,b,-20,landoltCR.png,,,,,4,15,335,10,,,b,0,1.33433549784,,,2020_Mar_04_1111,59.9635351776,duckFrog,001,10,
frog,quackR.wav,20,landoltCTop.png,V2,duckFront.png,frogFront.png,HinCong,h,-20,landoltCR.png,,,,,4,16,336,58,,,h,0,0.767478038702,,,2020_Mar_04_1111,59.9635351776,duckFrog,001,10,
frog,ribbitL.wav,20,landoltCBottom.png,V2,duckFront.png,frogFront.png,Hcong,b,-20,landoltCL.png,,,,,4,17,337,64,,,b,0,0.634071027598,,,2020_Mar_04_1111,59.9635351776,duckFrog,001,10,
frog,wnR.wav,-20,landoltCR.png,V2,frogFront.png,duckFront.png,HcongWN,b,20,landoltCBottom.png,,,,,4,18,338,53,,,b,0,0.617078584153,,,2020_Mar_04_1111,59.9635351776,duckFrog,001,10,
duck,ribbitR.wav,20,landoltCTop.png,V2,frogFront.png,duckFront.png,LinCong,h,-20,landoltCL.png,,,,,4,19,339,2,,,h,0,1.33438351669,,,2020_Mar_04_1111,59.9635351776,duckFrog,001,10,
frog,ribbitL.wav,20,landoltCTop.png,V2,duckFront.png,frogFront.png,Hcong,h,-20,landoltCR.png,,,,,4,20,340,24,,,h,0,0.784173938213,,,2020_Mar_04_1111,59.9635351776,duckFrog,001,10,
frog,quackR.wav,20,landoltCTop.png,V2,duckFront.png,frogFront.png,HinCong,h,-20,landoltCR.png,,,,,4,21,341,26,,,h,0,0.750927661982,,,2020_Mar_04_1111,59.9635351776,duckFrog,001,10,
frog,wnR.wav,-20,landoltCR.png,V2,frogFront.png,duckFront.png,HcongWN,h,20,landoltCTop.png,,,,,4,22,342,77,,,h,0,0.634010912385,,,2020_Mar_04_1111,59.9635351776,duckFrog,001,10,
duck,wnR.wav,20,landoltCTop.png,V2,frogFront.png,duckFront.png,LinCongWN,h,-20,landoltCR.png,,,,,4,23,343,3,,,h,0,1.28438342508,,,2020_Mar_04_1111,59.9635351776,duckFrog,001,10,
frog,wnR.wav,20,landoltCTop.png,V2,duckFront.png,frogFront.png,HinCongWN,h,-20,landoltCL.png,,,,,4,24,344,43,,,h,0,0.634058564698,,,2020_Mar_04_1111,59.9635351776,duckFrog,001,10,
frog,quackL.wav,-20,landoltCL.png,V2,frogFront.png,duckFront.png,HinCong,h,20,landoltCTop.png,,,,,4,25,345,30,,,h,0,0.984050408792,,,2020_Mar_04_1111,59.9635351776,duckFrog,001,10,
frog,wnR.wav,20,landoltCTop.png,V2,duckFront.png,frogFront.png,HinCongWN,h,-20,landoltCL.png,,,,,4,26,346,27,,,h,0,0.617071253015,,,2020_Mar_04_1111,59.9635351776,duckFrog,001,10,
frog,ribbitL.wav,20,landoltCBottom.png,V2,duckFront.png,frogFront.png,Hcong,b,-20,landoltCL.png,,,,,4,27,347,16,,,b,0,1.36809641894,,,2020_Mar_04_1111,59.9635351776,duckFrog,001,10,
frog,wnR.wav,-20,landoltCR.png,V2,frogFront.png,duckFront.png,HcongWN,b,20,landoltCBottom.png,,,,,4,28,348,37,,,b,0,0.583782456262,,,2020_Mar_04_1111,59.9635351776,duckFrog,001,10,
frog,ribbitL.wav,20,landoltCBottom.png,V2,duckFront.png,frogFront.png,Hcong,b,-20,landoltCL.png,,,,,4,29,349,32,,,b,0,0.88402053446,,,2020_Mar_04_1111,59.9635351776,duckFrog,001,10,
frog,wnL.wav,-20,landoltCR.png,V2,frogFront.png,duckFront.png,HinCongWN,b,20,landoltCBottom.png,,,,,4,30,350,23,,,b,0,0.366919407126,,,2020_Mar_04_1111,59.9635351776,duckFrog,001,10,
frog,wnR.wav,20,landoltCBottom.png,V2,duckFront.png,frogFront.png,HinCongWN,b,-20,landoltCR.png,,,,,4,31,351,67,,,b,0,0.450382043142,,,2020_Mar_04_1111,59.9635351776,duckFrog,001,10,
duck,ribbitL.wav,-20,landoltCR.png,V2,duckFront.png,frogFront.png,LinCong,b,20,landoltCBottom.png,,,,,4,32,352,14,,,b,0,1.16751835987,,,2020_Mar_04_1111,59.9635351776,duckFrog,001,10,
frog,wnL.wav,-20,landoltCR.png,V2,frogFront.png,duckFront.png,HinCongWN,h,20,landoltCTop.png,,,,,4,33,353,79,,,h,0,0.784391672583,,,2020_Mar_04_1111,59.9635351776,duckFrog,001,10,
frog,quackL.wav,-20,landoltCL.png,V2,frogFront.png,duckFront.png,HinCong,h,20,landoltCTop.png,,,,,4,34,354,78,,,h,0,0.667479688214,,,2020_Mar_04_1111,59.9635351776,duckFrog,001,10,
frog,wnR.wav,-20,landoltCR.png,V2,frogFront.png,duckFront.png,HcongWN,h,20,landoltCTop.png,,,,,4,35,355,45,,,h,0,0.450536363263,,,2020_Mar_04_1111,59.9635351776,duckFrog,001,10,
frog,wnR.wav,-20,landoltCR.png,V2,frogFront.png,duckFront.png,HcongWN,b,20,landoltCBottom.png,,,,,4,36,356,21,,,b,0,1.03438993142,,,2020_Mar_04_1111,59.9635351776,duckFrog,001,10,
duck,wnL.wav,20,landoltCBottom.png,V2,frogFront.png,duckFront.png,LcongWN,b,-20,landoltCL.png,,,,,4,37,357,9,,,b,0,1.21745173828,,,2020_Mar_04_1111,59.9635351776,duckFrog,001,10,
frog,ribbitL.wav,20,landoltCTop.png,V2,duckFront.png,frogFront.png,Hcong,h,-20,landoltCR.png,,,,,4,38,358,40,,,h,0,0.684082115884,,,2020_Mar_04_1111,59.9635351776,duckFrog,001,10,
frog,quackR.wav,20,landoltCBottom.png,V2,duckFront.png,frogFront.png,HinCong,b,-20,landoltCL.png,,,,,4,39,359,18,,,b,0,0.717476114281,,,2020_Mar_04_1111,59.9635351776,duckFrog,001,10,
frog,wnR.wav,-20,landoltCR.png,V2,frogFront.png,duckFront.png,HcongWN,h,20,landoltCTop.png,,,,,4,40,360,29,,,h,0,0.650641198328,,,2020_Mar_04_1111,59.9635351776,duckFrog,001,10,
duck,wnL.wav,-20,landoltCL.png,V2,duckFront.png,frogFront.png,LinCongWN,b,20,landoltCBottom.png,,,,,4,41,361,15,,,b,0,1.08452784817,,,2020_Mar_04_1111,59.9635351776,duckFrog,001,10,
frog,quackL.wav,-20,landoltCL.png,V2,frogFront.png,duckFront.png,HinCong,h,20,landoltCTop.png,,,,,4,42,362,62,,,h,0,0.817508187931,,,2020_Mar_04_1111,59.9635351776,duckFrog,001,10,
frog,ribbitR.wav,-20,landoltCL.png,V2,frogFront.png,duckFront.png,Hcong,h,20,landoltCTop.png,,,,,4,43,363,76,,,h,0,0.567266535829,,,2020_Mar_04_1111,59.9635351776,duckFrog,001,10,
frog,ribbitR.wav,-20,landoltCL.png,V2,frogFront.png,duckFront.png,Hcong,b,20,landoltCBottom.png,,,,,4,44,364,36,,,b,0,0.517229788558,,,2020_Mar_04_1111,59.9635351776,duckFrog,001,10,
duck,quackL.wav,20,landoltCTop.png,V2,frogFront.png,duckFront.png,Lcong,h,-20,landoltCL.png,,,,,4,45,365,0,,,h,0,1.1675883721,,,2020_Mar_04_1111,59.9635351776,duckFrog,001,10,
duck,wnL.wav,20,landoltCTop.png,V2,frogFront.png,duckFront.png,LcongWN,h,-20,landoltCR.png,,,,,4,46,366,1,,,h,0,1.30118782521,,,2020_Mar_04_1111,59.9635351776,duckFrog,001,10,
frog,quackR.wav,20,landoltCTop.png,V2,duckFront.png,frogFront.png,HinCong,h,-20,landoltCR.png,,,,,4,47,367,74,,,h,0,0.667344428977,,,2020_Mar_04_1111,59.9635351776,duckFrog,001,10,
duck,quackR.wav,-20,landoltCR.png,V2,duckFront.png,frogFront.png,Lcong,h,20,landoltCTop.png,,,,,4,48,368,4,,,h,0,1.1508088978,,,2020_Mar_04_1111,59.9635351776,duckFrog,001,10,
frog,wnR.wav,-20,landoltCR.png,V2,frogFront.png,duckFront.png,HcongWN,b,20,landoltCBottom.png,,,,,4,49,369,69,,,b,0,0.634069194784,,,2020_Mar_04_1111,59.9635351776,duckFrog,001,10,
frog,quackR.wav,20,landoltCBottom.png,V2,duckFront.png,frogFront.png,HinCong,b,-20,landoltCL.png,,,,,4,50,370,66,,,b,0,0.517024883651,,,2020_Mar_04_1111,59.9635351776,duckFrog,001,10,
frog,wnL.wav,-20,landoltCR.png,V2,frogFront.png,duckFront.png,HinCongWN,h,20,landoltCTop.png,,,,,4,51,371,63,,,h,0,0.733611916017,,,2020_Mar_04_1111,59.9635351776,duckFrog,001,10,
frog,wnL.wav,-20,landoltCR.png,V2,frogFront.png,duckFront.png,HinCongWN,h,20,landoltCTop.png,,,,,4,52,372,47,,,h,0,0.734183377062,,,2020_Mar_04_1111,59.9635351776,duckFrog,001,10,
frog,quackR.wav,20,landoltCBottom.png,V2,duckFront.png,frogFront.png,HinCong,b,-20,landoltCL.png,,,,,4,53,373,50,,,b,0,0.533880235103,,,2020_Mar_04_1111,59.9635351776,duckFrog,001,10,
frog,wnL.wav,20,landoltCTop.png,V2,duckFront.png,frogFront.png,HcongWN,h,-20,landoltCL.png,,,,,4,54,374,73,,,h,0,0.500660717458,,,2020_Mar_04_1111,59.9635351776,duckFrog,001,10,
frog,wnR.wav,20,landoltCBottom.png,V2,duckFront.png,frogFront.png,HinCongWN,b,-20,landoltCR.png,,,,,4,55,375,35,,,b,0,0.634065895807,,,2020_Mar_04_1111,59.9635351776,duckFrog,001,10,
frog,ribbitL.wav,20,landoltCBottom.png,V2,duckFront.png,frogFront.png,Hcong,b,-20,landoltCL.png,,,,,4,56,376,48,,,b,0,0.784180536226,,,2020_Mar_04_1111,59.9635351776,duckFrog,001,10,
frog,wnL.wav,20,landoltCTop.png,V2,duckFront.png,frogFront.png,HcongWN,h,-20,landoltCL.png,,,,,4,57,377,25,,,h,0,0.684315612161,,,2020_Mar_04_1111,59.9635351776,duckFrog,001,10,
frog,wnL.wav,20,landoltCTop.png,V2,duckFront.png,frogFront.png,HcongWN,h,-20,landoltCL.png,,,,,4,58,378,41,,,h,0,0.817500856821,,,2020_Mar_04_1111,59.9635351776,duckFrog,001,10,
frog,wnR.wav,20,landoltCBottom.png,V2,duckFront.png,frogFront.png,HinCongWN,b,-20,landoltCR.png,,,,,4,59,379,19,,,b,0,0.950957719557,,,2020_Mar_04_1111,59.9635351776,duckFrog,001,10,
frog,wnL.wav,20,landoltCBottom.png,V2,duckFront.png,frogFront.png,HcongWN,b,-20,landoltCR.png,,,,,4,60,380,17,,,b,0,0.650785988022,,,2020_Mar_04_1111,59.9635351776,duckFrog,001,10,
frog,ribbitR.wav,-20,landoltCL.png,V2,frogFront.png,duckFront.png,Hcong,b,20,landoltCBottom.png,,,,,4,61,381,68,,,b,0,0.467032489687,,,2020_Mar_04_1111,59.9635351776,duckFrog,001,10,
frog,quackR.wav,20,landoltCTop.png,V2,duckFront.png,frogFront.png,HinCong,h,-20,landoltCR.png,,,,,4,62,382,42,,,h,0,0.666972007952,,,2020_Mar_04_1111,59.9635351776,duckFrog,001,10,
frog,quackL.wav,-20,landoltCL.png,V2,frogFront.png,duckFront.png,HinCong,h,20,landoltCTop.png,,,,,4,63,383,46,,,h,0,0.700213885517,,,2020_Mar_04_1111,59.9635351776,duckFrog,001,10,
frog,wnL.wav,-20,landoltCR.png,V2,frogFront.png,duckFront.png,HinCongWN,h,20,landoltCTop.png,,,,,4,64,384,31,,,h,0,0.834204454004,,,2020_Mar_04_1111,59.9635351776,duckFrog,001,10,
frog,wnL.wav,20,landoltCTop.png,V2,duckFront.png,frogFront.png,HcongWN,h,-20,landoltCL.png,,,,,4,65,385,57,,,h,0,0.517114689923,,,2020_Mar_04_1111,59.9635351776,duckFrog,001,10,
frog,wnR.wav,20,landoltCTop.png,V2,duckFront.png,frogFront.png,HinCongWN,h,-20,landoltCL.png,,,,,4,66,386,75,,,h,0,0.600650637178,,,2020_Mar_04_1111,59.9635351776,duckFrog,001,10,
duck,wnR.wav,20,landoltCBottom.png,V2,frogFront.png,duckFront.png,LinCongWN,b,-20,landoltCL.png,,,,,4,67,387,11,,,b,0,1.38466219101,,,2020_Mar_04_1111,59.9635351776,duckFrog,001,10,
frog,ribbitR.wav,-20,landoltCL.png,V2,frogFront.png,duckFront.png,Hcong,h,20,landoltCTop.png,,,,,4,68,388,44,,,h,0,0.650457187177,,,2020_Mar_04_1111,59.9635351776,duckFrog,001,10,
frog,wnL.wav,-20,landoltCR.png,V2,frogFront.png,duckFront.png,HinCongWN,b,20,landoltCBottom.png,,,,,4,69,389,55,,,b,0,0.717492975877,,,2020_Mar_04_1111,59.9635351776,duckFrog,001,10,
frog,ribbitR.wav,-20,landoltCL.png,V2,frogFront.png,duckFront.png,Hcong,b,20,landoltCBottom.png,,,,,4,70,390,20,,,b,0,0.617408851249,,,2020_Mar_04_1111,59.9635351776,duckFrog,001,10,
frog,ribbitR.wav,-20,landoltCL.png,V2,frogFront.png,duckFront.png,Hcong,h,20,landoltCTop.png,,,,,4,71,391,28,,,h,0,0.784110890556,,,2020_Mar_04_1111,59.9635351776,duckFrog,001,10,
duck,quackL.wav,20,landoltCBottom.png,V2,frogFront.png,duckFront.png,Lcong,b,-20,landoltCR.png,,,,,4,72,392,8,,,b,0,1.06760724977,,,2020_Mar_04_1111,59.9635351776,duckFrog,001,10,
frog,wnL.wav,20,landoltCBottom.png,V2,duckFront.png,frogFront.png,HcongWN,b,-20,landoltCR.png,,,,,4,73,393,65,,,b,0,0.617350935383,,,2020_Mar_04_1111,59.9635351776,duckFrog,001,10,
frog,ribbitL.wav,20,landoltCTop.png,V2,duckFront.png,frogFront.png,Hcong,h,-20,landoltCR.png,,,,,4,74,394,56,,,h,0,0.800864339399,,,2020_Mar_04_1111,59.9635351776,duckFrog,001,10,
duck,quackR.wav,-20,landoltCR.png,V2,duckFront.png,frogFront.png,Lcong,b,20,landoltCBottom.png,,,,,4,75,395,12,,,b,0,0.950701130263,,,2020_Mar_04_1111,59.9635351776,duckFrog,001,10,
frog,wnR.wav,20,landoltCBottom.png,V2,duckFront.png,frogFront.png,HinCongWN,b,-20,landoltCR.png,,,,,4,76,396,51,,,b,0,0.650557256973,,,2020_Mar_04_1111,59.9635351776,duckFrog,001,10,
frog,wnR.wav,20,landoltCTop.png,V2,duckFront.png,frogFront.png,HinCongWN,h,-20,landoltCL.png,,,,,4,77,397,59,,,h,0,0.600690225227,,,2020_Mar_04_1111,59.9635351776,duckFrog,001,10,
duck,wnR.wav,-20,landoltCL.png,V2,duckFront.png,frogFront.png,LcongWN,h,20,landoltCTop.png,,,,,4,78,398,5,,,h,0,1.11745558714,,,2020_Mar_04_1111,59.9635351776,duckFrog,001,10,
frog,quackL.wav,-20,landoltCL.png,V2,frogFront.png,duckFront.png,HinCong,b,20,landoltCBottom.png,,,,,4,79,399,70,,,b,0,0.550597028312,,,2020_Mar_04_1111,59.9635351776,duckFrog,001,10,
duck,wnL.wav,-20,landoltCL.png,V2,duckFront.png,frogFront.png,LinCongWN,h,20,landoltCTop.png,,,,,5,0,400,7,,,h,0,1.16778814519,,,2020_Mar_04_1111,59.9635351776,duckFrog,001,10,
frog,wnL.wav,-20,landoltCR.png,V2,frogFront.png,duckFront.png,HinCongWN,b,20,landoltCBottom.png,,,,,5,1,401,55,,,b,0,1.21782195999,,,2020_Mar_04_1111,59.9635351776,duckFrog,001,10,
frog,ribbitR.wav,-20,landoltCL.png,V2,frogFront.png,duckFront.png,Hcong,b,20,landoltCBottom.png,,,,,5,2,402,52,,,b,0,0.567285963276,,,2020_Mar_04_1111,59.9635351776,duckFrog,001,10,
frog,quackR.wav,20,landoltCBottom.png,V2,duckFront.png,frogFront.png,HinCong,b,-20,landoltCL.png,,,,,5,3,403,66,,,b,0,0.567108550109,,,2020_Mar_04_1111,59.9635351776,duckFrog,001,10,
frog,wnR.wav,-20,landoltCR.png,V2,frogFront.png,duckFront.png,HcongWN,h,20,landoltCTop.png,,,,,5,4,404,29,,,h,0,1.11750543877,,,2020_Mar_04_1111,59.9635351776,duckFrog,001,10,
frog,quackL.wav,-20,landoltCL.png,V2,frogFront.png,duckFront.png,HinCong,h,20,landoltCTop.png,,,,,5,5,405,62,,,h,0,1.08434163764,,,2020_Mar_04_1111,59.9635351776,duckFrog,001,10,
frog,quackL.wav,-20,landoltCL.png,V2,frogFront.png,duckFront.png,HinCong,h,20,landoltCTop.png,,,,,5,6,406,30,,,h,0,0.75079313587,,,2020_Mar_04_1111,59.9635351776,duckFrog,001,10,
frog,wnR.wav,20,landoltCTop.png,V2,duckFront.png,frogFront.png,HinCongWN,h,-20,landoltCL.png,,,,,5,7,407,59,,,h,0,0.617056590767,,,2020_Mar_04_1111,59.9635351776,duckFrog,001,10,
frog,wnR.wav,-20,landoltCR.png,V2,frogFront.png,duckFront.png,HcongWN,b,20,landoltCBottom.png,,,,,5,8,408,69,,,b,0,0.783877027745,,,2020_Mar_04_1111,59.9635351776,duckFrog,001,10,
frog,wnL.wav,-20,landoltCR.png,V2,frogFront.png,duckFront.png,HinCongWN,b,20,landoltCBottom.png,,,,,5,9,409,23,,,b,0,0.717465850728,,,2020_Mar_04_1111,59.9635351776,duckFrog,001,10,
frog,wnL.wav,20,landoltCTop.png,V2,duckFront.png,frogFront.png,HcongWN,h,-20,landoltCL.png,,,,,5,10,410,73,,,h,0,0.550338239671,,,2020_Mar_04_1111,59.9635351776,duckFrog,001,10,
frog,quackL.wav,-20,landoltCL.png,V2,frogFront.png,duckFront.png,HinCong,b,20,landoltCBottom.png,,,,,5,11,411,70,,,b,0,0.900680511491,,,2020_Mar_04_1111,59.9635351776,duckFrog,001,10,
frog,wnR.wav,20,landoltCTop.png,V2,duckFront.png,frogFront.png,HinCongWN,h,-20,landoltCL.png,,,,,5,12,412,75,,,h,0,0.583969033352,,,2020_Mar_04_1111,59.9635351776,duckFrog,001,10,
frog,quackL.wav,-20,landoltCL.png,V2,frogFront.png,duckFront.png,HinCong,b,20,landoltCBottom.png,,,,,5,13,413,54,,,b,0,0.683954554377,,,2020_Mar_04_1111,59.9635351776,duckFrog,001,10,
frog,wnL.wav,-20,landoltCR.png,V2,frogFront.png,duckFront.png,HinCongWN,h,20,landoltCTop.png,,,,,5,14,414,79,,,h,0,0.65069874766,,,2020_Mar_04_1111,59.9635351776,duckFrog,001,10,
duck,wnR.wav,-20,landoltCL.png,V2,duckFront.png,frogFront.png,LcongWN,h,20,landoltCTop.png,,,,,5,15,415,5,,,h,0,1.33462984243,,,2020_Mar_04_1111,59.9635351776,duckFrog,001,10,
frog,quackR.wav,20,landoltCTop.png,V2,duckFront.png,frogFront.png,HinCong,h,-20,landoltCR.png,,,,,5,16,416,74,,,h,0,0.633848894562,,,2020_Mar_04_1111,59.9635351776,duckFrog,001,10,
frog,wnL.wav,20,landoltCBottom.png,V2,duckFront.png,frogFront.png,HcongWN,b,-20,landoltCR.png,,,,,5,17,417,33,,,b,0,0.750809630903,,,2020_Mar_04_1111,59.9635351776,duckFrog,001,10,
frog,ribbitL.wav,20,landoltCTop.png,V2,duckFront.png,frogFront.png,Hcong,h,-20,landoltCR.png,,,,,5,18,418,40,,,h,0,0.533964176459,,,2020_Mar_04_1111,59.9635351776,duckFrog,001,10,
frog,wnR.wav,20,landoltCTop.png,V2,duckFront.png,frogFront.png,HinCongWN,h,-20,landoltCL.png,,,,,5,19,419,27,,,h,0,0.70079377736,,,2020_Mar_04_1111,59.9635351776,duckFrog,001,10,
frog,quackL.wav,-20,landoltCL.png,V2,frogFront.png,duckFront.png,HinCong,h,20,landoltCTop.png,,,,,5,20,420,78,,,h,0,0.633672214492,,,2020_Mar_04_1111,59.9635351776,duckFrog,001,10,
frog,wnL.wav,20,landoltCBottom.png,V2,duckFront.png,frogFront.png,HcongWN,b,-20,landoltCR.png,,,,,5,21,421,49,,,b,0,0.76706492994,,,2020_Mar_04_1111,59.9635351776,duckFrog,001,10,
frog,ribbitR.wav,-20,landoltCL.png,V2,frogFront.png,duckFront.png,Hcong,h,20,landoltCTop.png,,,,,5,22,422,28,,,h,0,0.416955054709,,,2020_Mar_04_1111,59.9635351776,duckFrog,001,10,
frog,ribbitL.wav,20,landoltCTop.png,V2,duckFront.png,frogFront.png,Hcong,h,-20,landoltCR.png,,,,,5,23,423,56,,,h,0,0.567052100436,,,2020_Mar_04_1111,59.9635351776,duckFrog,001,10,
duck,wnL.wav,-20,landoltCL.png,V2,duckFront.png,frogFront.png,LinCongWN,b,20,landoltCBottom.png,,,,,5,24,424,15,,,b,0,1.10082346838,,,2020_Mar_04_1111,59.9635351776,duckFrog,001,10,
frog,wnR.wav,20,landoltCBottom.png,V2,duckFront.png,frogFront.png,HinCongWN,b,-20,landoltCR.png,,,,,5,25,425,19,,,b,0,0.733756339119,,,2020_Mar_04_1111,59.9635351776,duckFrog,001,10,
frog,wnR.wav,-20,landoltCR.png,V2,frogFront.png,duckFront.png,HcongWN,b,20,landoltCBottom.png,,,,,5,26,426,37,,,b,0,0.55040788537,,,2020_Mar_04_1111,59.9635351776,duckFrog,001,10,
frog,wnL.wav,20,landoltCTop.png,V2,duckFront.png,frogFront.png,HcongWN,h,-20,landoltCL.png,,,,,5,27,427,25,,,h,0,0.733854942722,,,2020_Mar_04_1111,59.9635351776,duckFrog,001,10,
frog,wnR.wav,-20,landoltCR.png,V2,frogFront.png,duckFront.png,HcongWN,h,20,landoltCTop.png,,,,,5,28,428,77,,,h,0,0.633931736229,,,2020_Mar_04_1111,59.9635351776,duckFrog,001,10,
frog,ribbitL.wav,20,landoltCTop.png,V2,duckFront.png,frogFront.png,Hcong,h,-20,landoltCR.png,,,,,5,29,429,24,,,h,0,0.583737736393,,,2020_Mar_04_1111,59.9635351776,duckFrog,001,10,
frog,wnR.wav,-20,landoltCR.png,V2,frogFront.png,duckFront.png,HcongWN,h,20,landoltCTop.png,,,,,5,30,430,45,,,h,0,0.450318262388,,,2020_Mar_04_1111,59.9635351776,duckFrog,001,10,
frog,wnL.wav,-20,landoltCR.png,V2,frogFront.png,duckFront.png,HinCongWN,h,20,landoltCTop.png,,,,,5,31,431,63,,,h,0,0.46720953632,,,2020_Mar_04_1111,59.9635351776,duckFrog,001,10,
frog,ribbitR.wav,-20,landoltCL.png,V2,frogFront.png,duckFront.png,Hcong,h,20,landoltCTop.png,,,,,5,32,432,44,,,h,0,0.550628552155,,,2020_Mar_04_1111,59.9635351776,duckFrog,001,10,
frog,wnL.wav,20,landoltCTop.png,V2,duckFront.png,frogFront.png,HcongWN,h,-20,landoltCL.png,,,,,5,33,433,41,,,h,0,0.483664241881,,,2020_Mar_04_1111,59.9635351776,duckFrog,001,10,
frog,ribbitR.wav,-20,landoltCL.png,V2,frogFront.png,duckFront.png,Hcong,b,20,landoltCBottom.png,,,,,5,34,434,36,,,b,0,0.850770959223,,,2020_Mar_04_1111,59.9635351776,duckFrog,001,10,
frog,quackR.wav,20,landoltCTop.png,V2,duckFront.png,frogFront.png,HinCong,h,-20,landoltCR.png,,,,,5,35,435,42,,,h,0,0.733983603946,,,2020_Mar_04_1111,59.9635351776,duckFrog,001,10,
frog,quackR.wav,20,landoltCTop.png,V2,duckFront.png,frogFront.png,HinCong,h,-20,landoltCR.png,,,,,5,36,436,26,,,h,0,0.583992492931,,,2020_Mar_04_1111,59.9635351776,duckFrog,001,10,
duck,quackL.wav,20,landoltCBottom.png,V2,frogFront.png,duckFront.png,Lcong,b,-20,landoltCR.png,,,,,5,37,437,8,,,b,0,1.16784789384,,,2020_Mar_04_1111,59.9635351776,duckFrog,001,10,
duck,wnR.wav,-20,landoltCL.png,V2,duckFront.png,frogFront.png,LcongWN,b,20,landoltCBottom.png,,,,,5,38,438,13,,,b,0,1.76801504349,,,2020_Mar_04_1111,59.9635351776,duckFrog,001,10,
frog,quackR.wav,20,landoltCTop.png,V2,duckFront.png,frogFront.png,HinCong,h,-20,landoltCR.png,,,,,5,39,439,58,,,h,0,0.917359915969,,,2020_Mar_04_1111,59.9635351776,duckFrog,001,10,
frog,wnL.wav,20,landoltCBottom.png,V2,duckFront.png,frogFront.png,HcongWN,b,-20,landoltCR.png,,,,,5,40,440,65,,,b,0,0.734023558558,,,2020_Mar_04_1111,59.9635351776,duckFrog,001,10,
duck,wnL.wav,20,landoltCBottom.png,V2,frogFront.png,duckFront.png,LcongWN,b,-20,landoltCL.png,,,,,5,41,441,9,,,b,0,1.31785256744,,,2020_Mar_04_1111,59.9635351776,duckFrog,001,10,
frog,quackL.wav,-20,landoltCL.png,V2,frogFront.png,duckFront.png,HinCong,b,20,landoltCBottom.png,,,,,5,42,442,38,,,b,0,0.617109374842,,,2020_Mar_04_1111,59.9635351776,duckFrog,001,10,
frog,wnL.wav,-20,landoltCR.png,V2,frogFront.png,duckFront.png,HinCongWN,h,20,landoltCTop.png,,,,,5,43,443,31,,,h,0,0.784168439888,,,2020_Mar_04_1111,59.9635351776,duckFrog,001,10,
frog,ribbitR.wav,-20,landoltCL.png,V2,frogFront.png,duckFront.png,Hcong,h,20,landoltCTop.png,,,,,5,44,444,76,,,h,0,0.867571327253,,,2020_Mar_04_1111,59.9635351776,duckFrog,001,10,
frog,wnR.wav,20,landoltCTop.png,V2,duckFront.png,frogFront.png,HinCongWN,h,-20,landoltCL.png,,,,,5,45,445,43,,,h,0,0.63378767969,,,2020_Mar_04_1111,59.9635351776,duckFrog,001,10,
frog,quackR.wav,20,landoltCBottom.png,V2,duckFront.png,frogFront.png,HinCong,b,-20,landoltCL.png,,,,,5,46,446,50,,,b,0,1.06774507486,,,2020_Mar_04_1111,59.9635351776,duckFrog,001,10,
frog,ribbitL.wav,20,landoltCBottom.png,V2,duckFront.png,frogFront.png,Hcong,b,-20,landoltCL.png,,,,,5,47,447,48,,,b,0,0.884265393979,,,2020_Mar_04_1111,59.9635351776,duckFrog,001,10,
frog,quackL.wav,-20,landoltCL.png,V2,frogFront.png,duckFront.png,HinCong,b,20,landoltCBottom.png,,,,,5,48,448,22,,,b,0,0.600394414418,,,2020_Mar_04_1111,59.9635351776,duckFrog,001,10,
frog,wnR.wav,-20,landoltCR.png,V2,frogFront.png,duckFront.png,HcongWN,h,20,landoltCTop.png,,,,,5,49,449,61,,,h,0,0.61735423436,,,2020_Mar_04_1111,59.9635351776,duckFrog,001,10,
duck,ribbitR.wav,20,landoltCBottom.png,V2,frogFront.png,duckFront.png,LinCong,b,-20,landoltCR.png,,,,,5,50,450,10,,,b,0,1.28432514262,,,2020_Mar_04_1111,59.9635351776,duckFrog,001,10,
frog,ribbitL.wav,20,landoltCBottom.png,V2,duckFront.png,frogFront.png,Hcong,b,-20,landoltCL.png,,,,,5,51,451,16,,,b,0,0.784172838554,,,2020_Mar_04_1111,59.9635351776,duckFrog,001,10,
duck,ribbitR.wav,20,landoltCTop.png,V2,frogFront.png,duckFront.png,LinCong,h,-20,landoltCL.png,,,,,5,52,452,2,,,h,0,1.36800587954,,,2020_Mar_04_1111,59.9635351776,duckFrog,001,10,
frog,quackL.wav,-20,landoltCL.png,V2,frogFront.png,duckFront.png,HinCong,h,20,landoltCTop.png,,,,,5,53,453,46,,,h,0,0.933950613893,,,2020_Mar_04_1111,59.9635351776,duckFrog,001,10,
frog,ribbitL.wav,20,landoltCBottom.png,V2,duckFront.png,frogFront.png,Hcong,b,-20,landoltCL.png,,,,,5,54,454,32,,,b,0,0.65044619047,,,2020_Mar_04_1111,59.9635351776,duckFrog,001,10,
frog,wnR.wav,20,landoltCBottom.png,V2,duckFront.png,frogFront.png,HinCongWN,b,-20,landoltCR.png,,,,,5,55,455,35,,,b,0,0.467262686958,,,2020_Mar_04_1111,59.9635351776,duckFrog,001,10,
frog,wnL.wav,-20,landoltCR.png,V2,frogFront.png,duckFront.png,HinCongWN,b,20,landoltCBottom.png,,,,,5,56,456,71,,,b,0,0.600373154157,,,2020_Mar_04_1111,59.9635351776,duckFrog,001,10,
duck,wnR.wav,20,landoltCBottom.png,V2,frogFront.png,duckFront.png,LinCongWN,b,-20,landoltCL.png,,,,,5,57,457,11,,,b,0,1.06746942463,,,2020_Mar_04_1111,59.9635351776,duckFrog,001,10,
frog,ribbitL.wav,20,landoltCBottom.png,V2,duckFront.png,frogFront.png,Hcong,b,-20,landoltCL.png,,,,,5,58,458,64,,,b,0,0.567327384109,,,2020_Mar_04_1111,59.9635351776,duckFrog,001,10,
duck,wnR.wav,20,landoltCTop.png,V2,frogFront.png,duckFront.png,LinCongWN,h,-20,landoltCR.png,,,,,5,59,459,3,,,h,0,1.5347790308,,,2020_Mar_04_1111,59.9635351776,duckFrog,001,10,
frog,wnL.wav,-20,landoltCR.png,V2,frogFront.png,duckFront.png,HinCongWN,h,20,landoltCTop.png,,,,,5,60,460,47,,,h,0,1.0675181766,,,2020_Mar_04_1111,59.9635351776,duckFrog,001,10,
duck,quackR.wav,-20,landoltCR.png,V2,duckFront.png,frogFront.png,Lcong,b,20,landoltCBottom.png,,,,,5,61,461,12,,,b,0,1.23443904996,,,2020_Mar_04_1111,59.9635351776,duckFrog,001,10,
frog,ribbitL.wav,20,landoltCTop.png,V2,duckFront.png,frogFront.png,Hcong,h,-20,landoltCR.png,,,,,5,62,462,72,,,h,0,0.700574210205,,,2020_Mar_04_1111,59.9635351776,duckFrog,001,10,
duck,quackR.wav,-20,landoltCR.png,V2,duckFront.png,frogFront.png,Lcong,h,20,landoltCTop.png,,,,,5,63,463,4,,,h,0,1.26764243914,,,2020_Mar_04_1111,59.9635351776,duckFrog,001,10,
frog,wnR.wav,20,landoltCBottom.png,V2,duckFront.png,frogFront.png,HinCongWN,b,-20,landoltCR.png,,,,,5,64,464,51,,,b,0,1.36779437665,,,2020_Mar_04_1111,59.9635351776,duckFrog,001,10,
frog,quackR.wav,20,landoltCBottom.png,V2,duckFront.png,frogFront.png,HinCong,b,-20,landoltCL.png,,,,,5,65,465,18,,,b,0,0.717441658024,,,2020_Mar_04_1111,59.9635351776,duckFrog,001,10,
frog,quackR.wav,20,landoltCBottom.png,V2,duckFront.png,frogFront.png,HinCong,b,-20,landoltCL.png,,,,,5,66,466,34,,,b,0,0.617406651902,,,2020_Mar_04_1111,59.9635351776,duckFrog,001,10,
frog,wnL.wav,-20,landoltCR.png,V2,frogFront.png,duckFront.png,HinCongWN,b,20,landoltCBottom.png,,,,,5,67,467,39,,,b,0,0.400277849549,,,2020_Mar_04_1111,59.9635351776,duckFrog,001,10,
frog,wnL.wav,20,landoltCBottom.png,V2,duckFront.png,frogFront.png,HcongWN,b,-20,landoltCR.png,,,,,5,68,468,17,,,b,0,0.50039239836,,,2020_Mar_04_1111,59.9635351776,duckFrog,001,10,
frog,ribbitR.wav,-20,landoltCL.png,V2,frogFront.png,duckFront.png,Hcong,b,20,landoltCBottom.png,,,,,5,69,469,68,,,b,0,0.567023875628,,,2020_Mar_04_1111,59.9635351776,duckFrog,001,10,
frog,ribbitR.wav,-20,landoltCL.png,V2,frogFront.png,duckFront.png,Hcong,h,20,landoltCTop.png,,,,,5,70,470,60,,,h,0,1.00101682675,,,2020_Mar_04_1111,59.9635351776,duckFrog,001,10,
duck,ribbitL.wav,-20,landoltCR.png,V2,duckFront.png,frogFront.png,LinCong,h,20,landoltCTop.png,,,,,5,71,471,6,,,h,0,1.21808001553,,,2020_Mar_04_1111,59.9635351776,duckFrog,001,10,
frog,wnR.wav,-20,landoltCR.png,V2,frogFront.png,duckFront.png,HcongWN,b,20,landoltCBottom.png,,,,,5,72,472,53,,,b,0,0.633976456098,,,2020_Mar_04_1111,59.9635351776,duckFrog,001,10,
frog,wnL.wav,20,landoltCTop.png,V2,duckFront.png,frogFront.png,HcongWN,h,-20,landoltCL.png,,,,,5,73,473,57,,,h,0,0.567016544519,,,2020_Mar_04_1111,59.9635351776,duckFrog,001,10,
duck,ribbitL.wav,-20,landoltCR.png,V2,duckFront.png,frogFront.png,LinCong,b,20,landoltCBottom.png,,,,,5,74,474,14,,,b,0,1.11741966463,,,2020_Mar_04_1111,59.9635351776,duckFrog,001,10,
frog,ribbitR.wav,-20,landoltCL.png,V2,frogFront.png,duckFront.png,Hcong,b,20,landoltCBottom.png,,,,,5,75,475,20,,,b,0,0.684063788096,,,2020_Mar_04_1111,59.9635351776,duckFrog,001,10,
frog,wnR.wav,-20,landoltCR.png,V2,frogFront.png,duckFront.png,HcongWN,b,20,landoltCBottom.png,,,,,5,76,476,21,,,b,0,0.617313546623,,,2020_Mar_04_1111,59.9635351776,duckFrog,001,10,
duck,wnL.wav,20,landoltCTop.png,V2,frogFront.png,duckFront.png,LcongWN,h,-20,landoltCR.png,,,,,5,77,477,1,,,h,0,1.28426576054,,,2020_Mar_04_1111,59.9635351776,duckFrog,001,10,
frog,wnR.wav,20,landoltCBottom.png,V2,duckFront.png,frogFront.png,HinCongWN,b,-20,landoltCR.png,,,,,5,78,478,67,,,b,0,0.567330316582,,,2020_Mar_04_1111,59.9635351776,duckFrog,001,10,
duck,quackL.wav,20,landoltCTop.png,V2,frogFront.png,duckFront.png,Lcong,h,-20,landoltCL.png,,,,,5,79,479,0,,,h,0,1.10105953054,,,2020_Mar_04_1111,59.9635351776,duckFrog,001,10,
frog,quackR.wav,20,landoltCTop.png,V2,duckFront.png,frogFront.png,HinCong,h,-20,landoltCR.png,,,,,6,0,480,58,,,h,0,0.767454212561,,,2020_Mar_04_1111,59.9635351776,duckFrog,001,10,
duck,ribbitR.wav,20,landoltCTop.png,V2,frogFront.png,duckFront.png,LinCong,h,-20,landoltCL.png,,,,,6,1,481,2,,,h,0,1.26785430859,,,2020_Mar_04_1111,59.9635351776,duckFrog,001,10,
duck,quackR.wav,-20,landoltCR.png,V2,duckFront.png,frogFront.png,Lcong,h,20,landoltCTop.png,,,,,6,2,482,4,,,h,0,1.28434896877,,,2020_Mar_04_1111,59.9635351776,duckFrog,001,10,
frog,quackL.wav,-20,landoltCL.png,V2,frogFront.png,duckFront.png,HinCong,h,20,landoltCTop.png,,,,,6,3,483,30,,,h,0,1.25116647332,,,2020_Mar_04_1111,59.9635351776,duckFrog,001,10,
frog,wnR.wav,-20,landoltCR.png,V2,frogFront.png,duckFront.png,HcongWN,b,20,landoltCBottom.png,,,,,6,4,484,37,,,b,0,1.20117591214,,,2020_Mar_04_1111,59.9635351776,duckFrog,001,10,
frog,wnR.wav,-20,landoltCR.png,V2,frogFront.png,duckFront.png,HcongWN,h,20,landoltCTop.png,,,,,6,5,485,29,,,h,0,0.784170639206,,,2020_Mar_04_1111,59.9635351776,duckFrog,001,10,
frog,wnR.wav,20,landoltCBottom.png,V2,duckFront.png,frogFront.png,HinCongWN,b,-20,landoltCR.png,,,,,6,6,486,51,,,b,0,0.600544702436,,,2020_Mar_04_1111,59.9635351776,duckFrog,001,10,
duck,wnR.wav,20,landoltCTop.png,V2,frogFront.png,duckFront.png,LinCongWN,h,-20,landoltCR.png,,,,,6,7,487,3,,,h,0,1.23455561482,,,2020_Mar_04_1111,59.9635351776,duckFrog,001,10,
frog,wnL.wav,-20,landoltCR.png,V2,frogFront.png,duckFront.png,HinCongWN,b,20,landoltCBottom.png,,,,,6,8,488,23,,,b,0,1.28497834568,,,2020_Mar_04_1111,59.9635351776,duckFrog,001,10,
frog,ribbitR.wav,-20,landoltCL.png,V2,frogFront.png,duckFront.png,Hcong,h,20,landoltCTop.png,,,,,6,9,489,76,,,h,0,0.800972106896,,,2020_Mar_04_1111,59.9635351776,duckFrog,001,10,
frog,wnR.wav,-20,landoltCR.png,V2,frogFront.png,duckFront.png,HcongWN,b,20,landoltCBottom.png,,,,,6,10,490,21,,,b,0,0.700829699868,,,2020_Mar_04_1111,59.9635351776,duckFrog,001,10,
frog,ribbitR.wav,-20,landoltCL.png,V2,frogFront.png,duckFront.png,Hcong,h,20,landoltCTop.png,,,,,6,11,491,44,,,h,0,0.750861315319,,,2020_Mar_04_1111,59.9635351776,duckFrog,001,10,
duck,wnL.wav,20,landoltCBottom.png,V2,frogFront.png,duckFront.png,LcongWN,b,-20,landoltCL.png,,,,,6,12,492,9,,,b,0,1.38453279671,,,2020_Mar_04_1111,59.9635351776,duckFrog,001,10,
frog,wnR.wav,-20,landoltCR.png,V2,frogFront.png,duckFront.png,HcongWN,h,20,landoltCTop.png,,,,,6,13,493,45,,,h,0,0.600592354749,,,2020_Mar_04_1111,59.9635351776,duckFrog,001,10,
frog,quackL.wav,-20,landoltCL.png,V2,frogFront.png,duckFront.png,HinCong,h,20,landoltCTop.png,,,,,6,14,494,78,,,h,0,0.784302232874,,,2020_Mar_04_1111,59.9635351776,duckFrog,001,10,
frog,wnR.wav,-20,landoltCR.png,V2,frogFront.png,duckFront.png,HcongWN,b,20,landoltCBottom.png,,,,,6,15,495,53,,,b,0,0.750759412709,,,2020_Mar_04_1111,59.9635351776,duckFrog,001,10,
duck,ribbitL.wav,-20,landoltCR.png,V2,duckFront.png,frogFront.png,LinCong,h,20,landoltCTop.png,,,,,6,16,496,6,,,h,0,1.36793073555,,,2020_Mar_04_1111,59.9635351776,duckFrog,001,10,
frog,wnL.wav,20,landoltCBottom.png,V2,duckFront.png,frogFront.png,HcongWN,b,-20,landoltCR.png,,,,,6,17,497,17,,,b,0,0.650640465261,,,2020_Mar_04_1111,59.9635351776,duckFrog,001,10,
frog,ribbitL.wav,20,landoltCTop.png,V2,duckFront.png,frogFront.png,Hcong,h,-20,landoltCR.png,,,,,6,18,498,40,,,h,0,0.750875244441,,,2020_Mar_04_1111,59.9635351776,duckFrog,001,10,
frog,ribbitR.wav,-20,landoltCL.png,V2,frogFront.png,duckFront.png,Hcong,h,20,landoltCTop.png,,,,,6,19,499,28,,,h,0,0.667277349188,,,2020_Mar_04_1111,59.9635351776,duckFrog,001,10,
frog,quackR.wav,20,landoltCBottom.png,V2,duckFront.png,frogFront.png,HinCong,b,-20,landoltCL.png,,,,,6,20,500,34,,,b,0,0.617223740381,,,2020_Mar_04_1111,59.9635351776,duckFrog,001,10,
duck,quackR.wav,-20,landoltCR.png,V2,duckFront.png,frogFront.png,Lcong,b,20,landoltCBottom.png,,,,,6,21,501,12,,,b,0,1.11743286069,,,2020_Mar_04_1111,59.9635351776,duckFrog,001,10,
duck,ribbitL.wav,-20,landoltCR.png,V2,duckFront.png,frogFront.png,LinCong,b,20,landoltCBottom.png,,,,,6,22,502,14,,,b,0,1.15119158238,,,2020_Mar_04_1111,59.9635351776,duckFrog,001,10,
frog,wnL.wav,20,landoltCTop.png,V2,duckFront.png,frogFront.png,HcongWN,h,-20,landoltCL.png,,,,,6,23,503,73,,,h,0,0.617297784745,,,2020_Mar_04_1111,59.9635351776,duckFrog,001,10,
frog,wnL.wav,20,landoltCTop.png,V2,duckFront.png,frogFront.png,HcongWN,h,-20,landoltCL.png,,,,,6,24,504,57,,,h,0,0.717529998015,,,2020_Mar_04_1111,59.9635351776,duckFrog,001,10,
frog,wnR.wav,20,landoltCTop.png,V2,duckFront.png,frogFront.png,HinCongWN,h,-20,landoltCL.png,,,,,6,25,505,27,,,h,0,0.750886241149,,,2020_Mar_04_1111,59.9635351776,duckFrog,001,10,
frog,ribbitL.wav,20,landoltCBottom.png,V2,duckFront.png,frogFront.png,Hcong,b,-20,landoltCL.png,,,,,6,26,506,64,,,b,0,0.734218933008,,,2020_Mar_04_1111,59.9635351776,duckFrog,001,10,
duck,wnL.wav,-20,landoltCL.png,V2,duckFront.png,frogFront.png,LinCongWN,b,20,landoltCBottom.png,,,,,6,27,507,15,,,b,0,1.16754218604,,,2020_Mar_04_1111,59.9635351776,duckFrog,001,10,
frog,quackR.wav,20,landoltCTop.png,V2,duckFront.png,frogFront.png,HinCong,h,-20,landoltCR.png,,,,,6,28,508,42,,,h,0,0.917517535127,,,2020_Mar_04_1111,59.9635351776,duckFrog,001,10,
frog,ribbitL.wav,20,landoltCBottom.png,V2,duckFront.png,frogFront.png,Hcong,b,-20,landoltCL.png,,,,,6,29,509,48,,,b,0,0.734195106837,,,2020_Mar_04_1111,59.9635351776,duckFrog,001,10,
duck,ribbitR.wav,20,landoltCBottom.png,V2,frogFront.png,duckFront.png,LinCong,b,-20,landoltCR.png,,,,,6,30,510,10,,,b,0,1.9684362165,,,2020_Mar_04_1111,59.9635351776,duckFrog,001,10,
frog,wnL.wav,20,landoltCBottom.png,V2,duckFront.png,frogFront.png,HcongWN,b,-20,landoltCR.png,,,,,6,31,511,65,,,b,0,0.517328392161,,,2020_Mar_04_1111,59.9635351776,duckFrog,001,10,
frog,wnR.wav,20,landoltCTop.png,V2,duckFront.png,frogFront.png,HinCongWN,h,-20,landoltCL.png,,,,,6,32,512,59,,,h,0,0.684165324172,,,2020_Mar_04_1111,59.9635351776,duckFrog,001,10,
frog,quackL.wav,-20,landoltCL.png,V2,frogFront.png,duckFront.png,HinCong,b,20,landoltCBottom.png,,,,,6,33,513,38,,,b,0,0.517174805136,,,2020_Mar_04_1111,59.9635351776,duckFrog,001,10,
frog,wnL.wav,20,landoltCBottom.png,V2,duckFront.png,frogFront.png,HcongWN,b,-20,landoltCR.png,,,,,6,34,514,49,,,b,0,0.500496500288,,,2020_Mar_04_1111,59.9635351776,duckFrog,001,10,
duck,quackL.wav,20,landoltCBottom.png,V2,frogFront.png,duckFront.png,Lcong,b,-20,landoltCR.png,,,,,6,35,515,8,,,b,0,1.11782874132,,,2020_Mar_04_1111,59.9635351776,duckFrog,001,10,
frog,quackL.wav,-20,landoltCL.png,V2,frogFront.png,duckFront.png,HinCong,h,20,landoltCTop.png,,,,,6,36,516,62,,,h,0,0.617087748047,,,2020_Mar_04_1111,59.9635351776,duckFrog,001,10,
frog,ribbitL.wav,20,landoltCTop.png,V2,duckFront.png,frogFront.png,Hcong,h,-20,landoltCR.png,,,,,6,37,517,24,,,h,0,0.633691275434,,,2020_Mar_04_1111,59.9635351776,duckFrog,001,10,
frog,wnL.wav,-20,landoltCR.png,V2,frogFront.png,duckFront.png,HinCongWN,b,20,landoltCBottom.png,,,,,6,38,518,55,,,b,0,0.60058245773,,,2020_Mar_04_1111,59.9635351776,duckFrog,001,10,
frog,wnR.wav,-20,landoltCR.png,V2,frogFront.png,duckFront.png,HcongWN,h,20,landoltCTop.png,,,,,6,39,519,61,,,h,0,0.802007628052,,,2020_Mar_04_1111,59.9635351776,duckFrog,001,10,
frog,wnR.wav,20,landoltCTop.png,V2,duckFront.png,frogFront.png,HinCongWN,h,-20,landoltCL.png,,,,,6,40,520,75,,,h,0,0.417098744714,,,2020_Mar_04_1111,59.9635351776,duckFrog,001,10,
duck,wnR.wav,-20,landoltCL.png,V2,duckFront.png,frogFront.png,LcongWN,b,20,landoltCBottom.png,,,,,6,41,521,13,,,b,0,1.53463680699,,,2020_Mar_04_1111,59.9635351776,duckFrog,001,10,
frog,wnL.wav,-20,landoltCR.png,V2,frogFront.png,duckFront.png,HinCongWN,h,20,landoltCTop.png,,,,,6,42,522,79,,,h,0,0.617445873388,,,2020_Mar_04_1111,59.9635351776,duckFrog,001,10,
frog,quackR.wav,20,landoltCBottom.png,V2,duckFront.png,frogFront.png,HinCong,b,-20,landoltCL.png,,,,,6,43,523,66,,,b,0,0.783977830695,,,2020_Mar_04_1111,59.9635351776,duckFrog,001,10,
frog,wnL.wav,-20,landoltCR.png,V2,frogFront.png,duckFront.png,HinCongWN,b,20,landoltCBottom.png,,,,,6,44,524,71,,,b,0,0.583777691034,,,2020_Mar_04_1111,59.9635351776,duckFrog,001,10,
frog,wnL.wav,20,landoltCTop.png,V2,duckFront.png,frogFront.png,HcongWN,h,-20,landoltCL.png,,,,,6,45,525,41,,,h,0,0.633941266715,,,2020_Mar_04_1111,59.9635351776,duckFrog,001,10,
frog,ribbitL.wav,20,landoltCTop.png,V2,duckFront.png,frogFront.png,Hcong,h,-20,landoltCR.png,,,,,6,46,526,56,,,b,0,0.534117763513,,,2020_Mar_04_1111,59.9635351776,duckFrog,001,10,
frog,ribbitR.wav,-20,landoltCL.png,V2,frogFront.png,duckFront.png,Hcong,b,20,landoltCBottom.png,,,,,6,47,527,52,,,b,0,0.750546077034,,,2020_Mar_04_1111,59.9635351776,duckFrog,001,10,
duck,wnR.wav,-20,landoltCL.png,V2,duckFront.png,frogFront.png,LcongWN,h,20,landoltCTop.png,,,,,6,48,528,5,,,h,0,1.20124005945,,,2020_Mar_04_1111,59.9635351776,duckFrog,001,10,
frog,wnL.wav,-20,landoltCR.png,V2,frogFront.png,duckFront.png,HinCongWN,h,20,landoltCTop.png,,,,,6,49,529,63,,,h,0,0.667361657135,,,2020_Mar_04_1111,59.9635351776,duckFrog,001,10,
frog,wnL.wav,20,landoltCBottom.png,V2,duckFront.png,frogFront.png,HcongWN,b,-20,landoltCR.png,,,,,6,50,530,33,,,b,0,0.717326559359,,,2020_Mar_04_1111,59.9635351776,duckFrog,001,10,
frog,ribbitR.wav,-20,landoltCL.png,V2,frogFront.png,duckFront.png,Hcong,h,20,landoltCTop.png,,,,,6,51,531,60,,,h,0,0.70064825454,,,2020_Mar_04_1111,59.9635351776,duckFrog,001,10,
frog,ribbitL.wav,20,landoltCBottom.png,V2,duckFront.png,frogFront.png,Hcong,b,-20,landoltCL.png,,,,,6,52,532,32,,,b,0,0.667289445584,,,2020_Mar_04_1111,59.9635351776,duckFrog,001,10,
frog,wnL.wav,-20,landoltCR.png,V2,frogFront.png,duckFront.png,HinCongWN,b,20,landoltCBottom.png,,,,,6,53,533,39,,,b,0,0.617134300672,,,2020_Mar_04_1111,59.9635351776,duckFrog,001,10,
frog,quackR.wav,20,landoltCBottom.png,V2,duckFront.png,frogFront.png,HinCong,b,-20,landoltCL.png,,,,,6,54,534,50,,,b,0,0.567233912327,,,2020_Mar_04_1111,59.9635351776,duckFrog,001,10,
frog,wnR.wav,20,landoltCBottom.png,V2,duckFront.png,frogFront.png,HinCongWN,b,-20,landoltCR.png,,,,,6,55,535,35,,,b,0,0.567421222513,,,2020_Mar_04_1111,59.9635351776,duckFrog,001,10,
frog,wnR.wav,-20,landoltCR.png,V2,frogFront.png,duckFront.png,HcongWN,h,20,landoltCTop.png,,,,,6,56,536,77,,,h,0,1.26778942815,,,2020_Mar_04_1111,59.9635351776,duckFrog,001,10,
duck,wnL.wav,20,landoltCTop.png,V2,frogFront.png,duckFront.png,LcongWN,h,-20,landoltCR.png,,,,,6,57,537,1,,,h,0,1.55129311845,,,2020_Mar_04_1111,59.9635351776,duckFrog,001,10,
frog,wnL.wav,-20,landoltCR.png,V2,frogFront.png,duckFront.png,HinCongWN,h,20,landoltCTop.png,,,,,6,58,538,31,,,h,0,0.750709561078,,,2020_Mar_04_1111,59.9635351776,duckFrog,001,10,
frog,ribbitL.wav,20,landoltCTop.png,V2,duckFront.png,frogFront.png,Hcong,h,-20,landoltCR.png,,,,,6,59,539,72,,,h,0,0.633903877984,,,2020_Mar_04_1111,59.9635351776,duckFrog,001,10,
frog,wnL.wav,20,landoltCTop.png,V2,duckFront.png,frogFront.png,HcongWN,h,-20,landoltCL.png,,,,,6,60,540,25,,,h,0,0.550777740515,,,2020_Mar_04_1111,59.9635351776,duckFrog,001,10,
frog,quackR.wav,20,landoltCTop.png,V2,duckFront.png,frogFront.png,HinCong,h,-20,landoltCR.png,,,,,6,61,541,74,,,h,0,0.55070626206,,,2020_Mar_04_1111,59.9635351776,duckFrog,001,10,
frog,wnR.wav,20,landoltCBottom.png,V2,duckFront.png,frogFront.png,HinCongWN,b,-20,landoltCR.png,,,,,6,62,542,67,,,b,0,0.584021450864,,,2020_Mar_04_1111,59.9635351776,duckFrog,001,10,
duck,wnL.wav,-20,landoltCL.png,V2,duckFront.png,frogFront.png,LinCongWN,h,20,landoltCTop.png,,,,,6,63,543,7,,,h,0,1.33436628856,,,2020_Mar_04_1111,59.9635351776,duckFrog,001,10,
frog,ribbitR.wav,-20,landoltCL.png,V2,frogFront.png,duckFront.png,Hcong,b,20,landoltCBottom.png,,,,,6,64,544,20,,,b,0,0.950965050724,,,2020_Mar_04_1111,59.9635351776,duckFrog,001,10,
frog,ribbitL.wav,20,landoltCBottom.png,V2,duckFront.png,frogFront.png,Hcong,b,-20,landoltCL.png,,,,,6,65,545,16,,,b,0,0.800602618314,,,2020_Mar_04_1111,59.9635351776,duckFrog,001,10,
