targetAnim,audioPos,distPos,visualL,expLab,picR,picL,condLabel,corrAns,targetPos,visualR,pracTrials1a.thisRepN,pracTrials1a.thisTrialN,pracTrials1a.thisN,pracTrials1a.thisIndex,exp1a.thisRepN,exp1a.thisTrialN,exp1a.thisN,exp1a.thisIndex,pressToCont.keys,pressToCont.rt,key_resp_2.keys,key_resp_2.corr,key_resp_2.rt,spaceToBegin.keys,spaceToBegin.rt,date,frameRate,expName,session,participant,
,,,,,,,,,,,,,,,,,,,space,23.3022347096,,,,,,2020_Mar_04_1424,59.9498311183,duckFrog,001,11,
duck,ribbitL.wav,-20,landoltCR.png,prac,duckFront.png,frogFront.png,HinCong,h,20,landoltCTop.png,0,0,0,1,,,,,,,h,0,2.25222325471,,,2020_Mar_04_1424,59.9498311183,duckFrog,001,11,
frog,ribbitR.wav,-20,landoltCL.png,prac,frogFront.png,duckFront.png,Lcong,b,20,landoltCBottom.png,0,1,1,3,,,,,,,b,0,1.91863809727,,,2020_Mar_04_1424,59.9498311183,duckFrog,001,11,
duck,quackL.wav,20,landoltCTop.png,prac,frogFront.png,duckFront.png,Hcong,h,-20,landoltCL.png,0,2,2,0,,,,,,,h,0,1.68485298351,,,2020_Mar_04_1424,59.9498311183,duckFrog,001,11,
frog,wnR.wav,20,landoltCBottom.png,prac,duckFront.png,frogFront.png,LinCongWN,b,-20,landoltCR.png,0,3,3,2,,,,,,,b,0,0.484274557879,,,2020_Mar_04_1424,59.9498311183,duckFrog,001,11,
duck,wnL.wav,20,landoltCBottom.png,prac,frogFront.png,duckFront.png,HcongWN,b,-20,landoltCL.png,0,4,4,4,,,,,,,b,0,0.73434722767,,,2020_Mar_04_1424,59.9498311183,duckFrog,001,11,
,,,,,,,,,,,,,,,,,,,,,,,,space,37.5802308937,2020_Mar_04_1424,59.9498311183,duckFrog,001,11,
duck,ribbitR.wav,20,landoltCTop.png,V1,frogFront.png,duckFront.png,HinCong,h,-20,landoltCL.png,,,,,0,0,0,50,,,h,0,0.834434284712,,,2020_Mar_04_1424,59.9498311183,duckFrog,001,11,
duck,quackR.wav,-20,landoltCR.png,V1,duckFront.png,frogFront.png,Hcong,h,20,landoltCTop.png,,,,,0,1,1,68,,,h,0,0.734145621769,,,2020_Mar_04_1424,59.9498311183,duckFrog,001,11,
duck,wnR.wav,-20,landoltCL.png,V1,duckFront.png,frogFront.png,HcongWN,b,20,landoltCBottom.png,,,,,0,2,2,77,,,b,0,0.734365922021,,,2020_Mar_04_1424,59.9498311183,duckFrog,001,11,
duck,wnR.wav,-20,landoltCL.png,V1,duckFront.png,frogFront.png,HcongWN,b,20,landoltCBottom.png,,,,,0,3,3,61,,,b,0,0.767728029983,,,2020_Mar_04_1424,59.9498311183,duckFrog,001,11,
duck,ribbitL.wav,-20,landoltCR.png,V1,duckFront.png,frogFront.png,HinCong,b,20,landoltCBottom.png,,,,,0,4,4,62,,,b,0,0.88448312835,,,2020_Mar_04_1424,59.9498311183,duckFrog,001,11,
duck,ribbitL.wav,-20,landoltCR.png,V1,duckFront.png,frogFront.png,HinCong,b,20,landoltCBottom.png,,,,,0,5,5,46,,,b,0,0.751062188094,,,2020_Mar_04_1424,59.9498311183,duckFrog,001,11,
duck,wnL.wav,20,landoltCTop.png,V1,frogFront.png,duckFront.png,HcongWN,h,-20,landoltCR.png,,,,,0,6,6,1,,,h,0,0.650789287029,,,2020_Mar_04_1424,59.9498311183,duckFrog,001,11,
frog,quackR.wav,20,landoltCTop.png,V1,duckFront.png,frogFront.png,LinCong,h,-20,landoltCR.png,,,,,0,7,7,26,,,h,0,1.13471598312,,,2020_Mar_04_1424,59.9498311183,duckFrog,001,11,
duck,ribbitL.wav,-20,landoltCR.png,V1,duckFront.png,frogFront.png,HinCong,h,20,landoltCTop.png,,,,,0,8,8,38,,,h,0,1.95176707557,,,2020_Mar_04_1424,59.9498311183,duckFrog,001,11,
frog,ribbitL.wav,20,landoltCTop.png,V1,duckFront.png,frogFront.png,Lcong,h,-20,landoltCR.png,,,,,0,9,9,24,,,h,0,0.617034963972,,,2020_Mar_04_1424,59.9498311183,duckFrog,001,11,
duck,wnL.wav,20,landoltCTop.png,V1,frogFront.png,duckFront.png,HcongWN,h,-20,landoltCR.png,,,,,0,10,10,49,,,h,0,1.18472120655,,,2020_Mar_04_1424,59.9498311183,duckFrog,001,11,
duck,quackL.wav,20,landoltCTop.png,V1,frogFront.png,duckFront.png,Hcong,h,-20,landoltCL.png,,,,,0,11,11,64,,,h,0,1.05126800935,,,2020_Mar_04_1424,59.9498311183,duckFrog,001,11,
duck,ribbitR.wav,20,landoltCBottom.png,V1,frogFront.png,duckFront.png,HinCong,b,-20,landoltCR.png,,,,,0,12,12,42,,,b,0,1.16822691294,,,2020_Mar_04_1424,59.9498311183,duckFrog,001,11,
duck,ribbitL.wav,-20,landoltCR.png,V1,duckFront.png,frogFront.png,HinCong,b,20,landoltCBottom.png,,,,,0,13,13,78,,,b,0,0.950945256656,,,2020_Mar_04_1424,59.9498311183,duckFrog,001,11,
frog,ribbitR.wav,-20,landoltCL.png,V1,frogFront.png,duckFront.png,Lcong,b,20,landoltCBottom.png,,,,,0,14,14,20,,,b,0,0.834454811877,,,2020_Mar_04_1424,59.9498311183,duckFrog,001,11,
frog,wnL.wav,-20,landoltCR.png,V1,frogFront.png,duckFront.png,LinCongWN,b,20,landoltCBottom.png,,,,,0,15,15,23,,,b,0,0.884487160452,,,2020_Mar_04_1424,59.9498311183,duckFrog,001,11,
duck,wnR.wav,-20,landoltCL.png,V1,duckFront.png,frogFront.png,HcongWN,b,20,landoltCBottom.png,,,,,0,16,16,45,,,b,0,0.550502090278,,,2020_Mar_04_1424,59.9498311183,duckFrog,001,11,
duck,wnL.wav,-20,landoltCL.png,V1,duckFront.png,frogFront.png,HinCongWN,h,20,landoltCTop.png,,,,,0,17,17,55,,,h,0,0.884502189263,,,2020_Mar_04_1424,59.9498311183,duckFrog,001,11,
duck,quackR.wav,-20,landoltCR.png,V1,duckFront.png,frogFront.png,Hcong,b,20,landoltCBottom.png,,,,,0,18,18,60,,,b,0,0.517552357953,,,2020_Mar_04_1424,59.9498311183,duckFrog,001,11,
duck,quackL.wav,20,landoltCBottom.png,V1,frogFront.png,duckFront.png,Hcong,b,-20,landoltCR.png,,,,,0,19,19,8,,,b,0,0.934289311786,,,2020_Mar_04_1424,59.9498311183,duckFrog,001,11,
frog,ribbitL.wav,20,landoltCBottom.png,V1,duckFront.png,frogFront.png,Lcong,b,-20,landoltCL.png,,,,,0,20,20,16,,,b,0,0.650991626026,,,2020_Mar_04_1424,59.9498311183,duckFrog,001,11,
duck,quackL.wav,20,landoltCTop.png,V1,frogFront.png,duckFront.png,Hcong,h,-20,landoltCL.png,,,,,0,21,21,48,,,h,0,0.5008736866,,,2020_Mar_04_1424,59.9498311183,duckFrog,001,11,
duck,quackL.wav,20,landoltCBottom.png,V1,frogFront.png,duckFront.png,Hcong,b,-20,landoltCR.png,,,,,0,22,22,56,,,b,0,0.550904568954,,,2020_Mar_04_1424,59.9498311183,duckFrog,001,11,
duck,wnR.wav,20,landoltCTop.png,V1,frogFront.png,duckFront.png,HinCongWN,h,-20,landoltCR.png,,,,,0,23,23,51,,,b,0,1.03461902903,,,2020_Mar_04_1424,59.9498311183,duckFrog,001,11,
duck,ribbitR.wav,20,landoltCBottom.png,V1,frogFront.png,duckFront.png,HinCong,b,-20,landoltCR.png,,,,,0,24,24,58,,,b,0,1.18471350888,,,2020_Mar_04_1424,59.9498311183,duckFrog,001,11,
duck,quackL.wav,20,landoltCTop.png,V1,frogFront.png,duckFront.png,Hcong,h,-20,landoltCL.png,,,,,0,25,25,32,,,h,0,1.18469078239,,,2020_Mar_04_1424,59.9498311183,duckFrog,001,11,
duck,ribbitR.wav,20,landoltCTop.png,V1,frogFront.png,duckFront.png,HinCong,h,-20,landoltCL.png,,,,,0,26,26,2,,,h,0,0.917839371425,,,2020_Mar_04_1424,59.9498311183,duckFrog,001,11,
duck,wnR.wav,20,landoltCBottom.png,V1,frogFront.png,duckFront.png,HinCongWN,b,-20,landoltCL.png,,,,,0,27,27,59,,,b,0,0.767713734298,,,2020_Mar_04_1424,59.9498311183,duckFrog,001,11,
frog,wnR.wav,20,landoltCTop.png,V1,duckFront.png,frogFront.png,LinCongWN,h,-20,landoltCL.png,,,,,0,28,28,27,,,h,0,1.03458383965,,,2020_Mar_04_1424,59.9498311183,duckFrog,001,11,
duck,wnL.wav,20,landoltCTop.png,V1,frogFront.png,duckFront.png,HcongWN,h,-20,landoltCR.png,,,,,0,29,29,65,,,h,0,0.734372520034,,,2020_Mar_04_1424,59.9498311183,duckFrog,001,11,
duck,wnR.wav,-20,landoltCL.png,V1,duckFront.png,frogFront.png,HcongWN,h,20,landoltCTop.png,,,,,0,30,30,37,,,h,0,1.01771602529,,,2020_Mar_04_1424,59.9498311183,duckFrog,001,11,
frog,quackL.wav,-20,landoltCL.png,V1,frogFront.png,duckFront.png,LinCong,b,20,landoltCBottom.png,,,,,0,31,31,22,,,b,0,1.33480139071,,,2020_Mar_04_1424,59.9498311183,duckFrog,001,11,
duck,ribbitL.wav,-20,landoltCR.png,V1,duckFront.png,frogFront.png,HinCong,b,20,landoltCBottom.png,,,,,0,32,32,14,,,b,0,1.05128377129,,,2020_Mar_04_1424,59.9498311183,duckFrog,001,11,
frog,wnR.wav,-20,landoltCR.png,V1,frogFront.png,duckFront.png,LcongWN,h,20,landoltCTop.png,,,,,0,33,33,29,,,h,0,0.600999232061,,,2020_Mar_04_1424,59.9498311183,duckFrog,001,11,
duck,quackR.wav,-20,landoltCR.png,V1,duckFront.png,frogFront.png,Hcong,h,20,landoltCTop.png,,,,,0,34,34,36,,,h,0,1.13469875499,,,2020_Mar_04_1424,59.9498311183,duckFrog,001,11,
duck,ribbitR.wav,20,landoltCBottom.png,V1,frogFront.png,duckFront.png,HinCong,b,-20,landoltCR.png,,,,,0,35,35,10,,,b,0,0.817268826795,,,2020_Mar_04_1424,59.9498311183,duckFrog,001,11,
frog,wnL.wav,20,landoltCBottom.png,V1,duckFront.png,frogFront.png,LcongWN,b,-20,landoltCR.png,,,,,0,36,36,17,,,b,0,0.984570918547,,,2020_Mar_04_1424,59.9498311183,duckFrog,001,11,
frog,wnL.wav,20,landoltCTop.png,V1,duckFront.png,frogFront.png,LcongWN,h,-20,landoltCL.png,,,,,0,37,37,25,,,h,0,0.550897237816,,,2020_Mar_04_1424,59.9498311183,duckFrog,001,11,
frog,wnL.wav,-20,landoltCR.png,V1,frogFront.png,duckFront.png,LinCongWN,h,20,landoltCTop.png,,,,,0,38,38,31,,,h,0,0.633976822661,,,2020_Mar_04_1424,59.9498311183,duckFrog,001,11,
duck,wnR.wav,-20,landoltCL.png,V1,duckFront.png,frogFront.png,HcongWN,h,20,landoltCTop.png,,,,,0,39,39,5,,,h,0,1.13466209936,,,2020_Mar_04_1424,59.9498311183,duckFrog,001,11,
duck,wnR.wav,20,landoltCTop.png,V1,frogFront.png,duckFront.png,HinCongWN,h,-20,landoltCR.png,,,,,0,40,40,35,,,h,0,1.35130778069,,,2020_Mar_04_1424,59.9498311183,duckFrog,001,11,
duck,quackR.wav,-20,landoltCR.png,V1,duckFront.png,frogFront.png,Hcong,b,20,landoltCBottom.png,,,,,0,41,41,44,,,b,0,1.03434447848,,,2020_Mar_04_1424,59.9498311183,duckFrog,001,11,
duck,wnR.wav,20,landoltCTop.png,V1,frogFront.png,duckFront.png,HinCongWN,h,-20,landoltCR.png,,,,,0,42,42,3,,,h,0,0.784161475312,,,2020_Mar_04_1424,59.9498311183,duckFrog,001,11,
duck,wnR.wav,20,landoltCTop.png,V1,frogFront.png,duckFront.png,HinCongWN,h,-20,landoltCR.png,,,,,0,43,43,67,,,h,0,0.567546951264,,,2020_Mar_04_1424,59.9498311183,duckFrog,001,11,
duck,wnR.wav,20,landoltCBottom.png,V1,frogFront.png,duckFront.png,HinCongWN,b,-20,landoltCL.png,,,,,0,44,44,75,,,b,0,0.534210135636,,,2020_Mar_04_1424,59.9498311183,duckFrog,001,11,
duck,wnR.wav,-20,landoltCL.png,V1,duckFront.png,frogFront.png,HcongWN,h,20,landoltCTop.png,,,,,0,45,45,69,,,h,0,0.634073593479,,,2020_Mar_04_1424,59.9498311183,duckFrog,001,11,
duck,quackR.wav,-20,landoltCR.png,V1,duckFront.png,frogFront.png,Hcong,h,20,landoltCTop.png,,,,,0,46,46,52,,,h,0,1.20139767858,,,2020_Mar_04_1424,59.9498311183,duckFrog,001,11,
duck,wnL.wav,20,landoltCBottom.png,V1,frogFront.png,duckFront.png,HcongWN,b,-20,landoltCL.png,,,,,0,47,47,41,,,b,0,0.834250273532,,,2020_Mar_04_1424,59.9498311183,duckFrog,001,11,
duck,wnL.wav,20,landoltCTop.png,V1,frogFront.png,duckFront.png,HcongWN,h,-20,landoltCR.png,,,,,0,48,48,33,,,h,0,0.78448697718,,,2020_Mar_04_1424,59.9498311183,duckFrog,001,11,
duck,quackR.wav,-20,landoltCR.png,V1,duckFront.png,frogFront.png,Hcong,h,20,landoltCTop.png,,,,,0,49,49,4,,,h,0,1.03440972546,,,2020_Mar_04_1424,59.9498311183,duckFrog,001,11,
duck,quackL.wav,20,landoltCBottom.png,V1,frogFront.png,duckFront.png,Hcong,b,-20,landoltCR.png,,,,,0,50,50,40,,,b,0,0.850914282666,,,2020_Mar_04_1424,59.9498311183,duckFrog,001,11,
duck,ribbitL.wav,-20,landoltCR.png,V1,duckFront.png,frogFront.png,HinCong,h,20,landoltCTop.png,,,,,0,51,51,70,,,h,0,0.867566928588,,,2020_Mar_04_1424,59.9498311183,duckFrog,001,11,
duck,quackR.wav,-20,landoltCR.png,V1,duckFront.png,frogFront.png,Hcong,b,20,landoltCBottom.png,,,,,0,52,52,12,,,b,0,0.567585073091,,,2020_Mar_04_1424,59.9498311183,duckFrog,001,11,
duck,ribbitR.wav,20,landoltCTop.png,V1,frogFront.png,duckFront.png,HinCong,h,-20,landoltCL.png,,,,,0,53,53,66,,,h,0,0.900981087529,,,2020_Mar_04_1424,59.9498311183,duckFrog,001,11,
duck,wnL.wav,-20,landoltCL.png,V1,duckFront.png,frogFront.png,HinCongWN,b,20,landoltCBottom.png,,,,,0,54,54,79,,,b,0,0.884239735053,,,2020_Mar_04_1424,59.9498311183,duckFrog,001,11,
duck,wnL.wav,-20,landoltCL.png,V1,duckFront.png,frogFront.png,HinCongWN,h,20,landoltCTop.png,,,,,0,55,55,39,,,h,0,0.550910800404,,,2020_Mar_04_1424,59.9498311183,duckFrog,001,11,
frog,wnR.wav,20,landoltCBottom.png,V1,duckFront.png,frogFront.png,LinCongWN,b,-20,landoltCR.png,,,,,0,56,56,19,,,b,0,0.550715792517,,,2020_Mar_04_1424,59.9498311183,duckFrog,001,11,
duck,ribbitR.wav,20,landoltCTop.png,V1,frogFront.png,duckFront.png,HinCong,h,-20,landoltCL.png,,,,,0,57,57,34,,,h,0,0.801118729374,,,2020_Mar_04_1424,59.9498311183,duckFrog,001,11,
duck,wnL.wav,-20,landoltCL.png,V1,duckFront.png,frogFront.png,HinCongWN,h,20,landoltCTop.png,,,,,0,58,58,7,,,h,0,0.550730088202,,,2020_Mar_04_1424,59.9498311183,duckFrog,001,11,
duck,ribbitL.wav,-20,landoltCR.png,V1,duckFront.png,frogFront.png,HinCong,h,20,landoltCTop.png,,,,,0,59,59,6,,,h,0,1.4683081051,,,2020_Mar_04_1424,59.9498311183,duckFrog,001,11,
frog,wnR.wav,-20,landoltCR.png,V1,frogFront.png,duckFront.png,LcongWN,b,20,landoltCBottom.png,,,,,0,60,60,21,,,b,0,1.05126434378,,,2020_Mar_04_1424,59.9498311183,duckFrog,001,11,
duck,wnL.wav,20,landoltCBottom.png,V1,frogFront.png,duckFront.png,HcongWN,b,-20,landoltCL.png,,,,,0,61,61,73,,,b,0,0.984376277222,,,2020_Mar_04_1424,59.9498311183,duckFrog,001,11,
duck,wnR.wav,-20,landoltCL.png,V1,duckFront.png,frogFront.png,HcongWN,b,20,landoltCBottom.png,,,,,0,62,62,13,,,b,0,0.634078725241,,,2020_Mar_04_1424,59.9498311183,duckFrog,001,11,
duck,wnL.wav,-20,landoltCL.png,V1,duckFront.png,frogFront.png,HinCongWN,b,20,landoltCBottom.png,,,,,0,63,63,47,,,b,0,1.05123208687,,,2020_Mar_04_1424,59.9498311183,duckFrog,001,11,
duck,wnL.wav,20,landoltCBottom.png,V1,frogFront.png,duckFront.png,HcongWN,b,-20,landoltCL.png,,,,,0,64,64,57,,,b,0,0.984388007026,,,2020_Mar_04_1424,59.9498311183,duckFrog,001,11,
duck,wnL.wav,-20,landoltCL.png,V1,duckFront.png,frogFront.png,HinCongWN,h,20,landoltCTop.png,,,,,0,65,65,71,,,h,0,0.850899986981,,,2020_Mar_04_1424,59.9498311183,duckFrog,001,11,
duck,quackR.wav,-20,landoltCR.png,V1,duckFront.png,frogFront.png,Hcong,b,20,landoltCBottom.png,,,,,0,66,66,76,,,b,0,1.18476702608,,,2020_Mar_04_1424,59.9498311183,duckFrog,001,11,
duck,ribbitR.wav,20,landoltCBottom.png,V1,frogFront.png,duckFront.png,HinCong,b,-20,landoltCR.png,,,,,0,67,67,74,,,b,0,1.3012387765,,,2020_Mar_04_1424,59.9498311183,duckFrog,001,11,
duck,wnR.wav,20,landoltCBottom.png,V1,frogFront.png,duckFront.png,HinCongWN,b,-20,landoltCL.png,,,,,0,68,68,11,,,b,0,0.584230387874,,,2020_Mar_04_1424,59.9498311183,duckFrog,001,11,
duck,ribbitL.wav,-20,landoltCR.png,V1,duckFront.png,frogFront.png,HinCong,h,20,landoltCTop.png,,,,,0,69,69,54,,,h,0,0.667388415721,,,2020_Mar_04_1424,59.9498311183,duckFrog,001,11,
frog,ribbitR.wav,-20,landoltCL.png,V1,frogFront.png,duckFront.png,Lcong,h,20,landoltCTop.png,,,,,0,70,70,28,,,h,0,0.567565645644,,,2020_Mar_04_1424,59.9498311183,duckFrog,001,11,
duck,wnL.wav,-20,landoltCL.png,V1,duckFront.png,frogFront.png,HinCongWN,b,20,landoltCBottom.png,,,,,0,71,71,15,,,b,0,1.11817513686,,,2020_Mar_04_1424,59.9498311183,duckFrog,001,11,
duck,wnL.wav,-20,landoltCL.png,V1,duckFront.png,frogFront.png,HinCongWN,b,20,landoltCBottom.png,,,,,0,72,72,63,,,b,0,0.98462480231,,,2020_Mar_04_1424,59.9498311183,duckFrog,001,11,
frog,quackR.wav,20,landoltCBottom.png,V1,duckFront.png,frogFront.png,LinCong,b,-20,landoltCL.png,,,,,0,73,73,18,,,b,0,1.10108592259,,,2020_Mar_04_1424,59.9498311183,duckFrog,001,11,
duck,wnR.wav,-20,landoltCL.png,V1,duckFront.png,frogFront.png,HcongWN,h,20,landoltCTop.png,,,,,0,74,74,53,,,h,0,1.06772638048,,,2020_Mar_04_1424,59.9498311183,duckFrog,001,11,
duck,quackL.wav,20,landoltCTop.png,V1,frogFront.png,duckFront.png,Hcong,h,-20,landoltCL.png,,,,,0,75,75,0,,,h,0,1.01751551908,,,2020_Mar_04_1424,59.9498311183,duckFrog,001,11,
duck,quackL.wav,20,landoltCBottom.png,V1,frogFront.png,duckFront.png,Hcong,b,-20,landoltCR.png,,,,,0,76,76,72,,,b,0,0.567748923699,,,2020_Mar_04_1424,59.9498311183,duckFrog,001,11,
frog,quackL.wav,-20,landoltCL.png,V1,frogFront.png,duckFront.png,LinCong,h,20,landoltCTop.png,,,,,0,77,77,30,,,h,0,1.0344954996,,,2020_Mar_04_1424,59.9498311183,duckFrog,001,11,
duck,wnL.wav,20,landoltCBottom.png,V1,frogFront.png,duckFront.png,HcongWN,b,-20,landoltCL.png,,,,,0,78,78,9,,,b,0,0.784189333586,,,2020_Mar_04_1424,59.9498311183,duckFrog,001,11,
duck,wnR.wav,20,landoltCBottom.png,V1,frogFront.png,duckFront.png,HinCongWN,b,-20,landoltCL.png,,,,,0,79,79,43,,,b,0,0.751075017557,,,2020_Mar_04_1424,59.9498311183,duckFrog,001,11,
duck,quackR.wav,-20,landoltCR.png,V1,duckFront.png,frogFront.png,Hcong,b,20,landoltCBottom.png,,,,,1,0,80,60,,,b,0,0.517547959287,,,2020_Mar_04_1424,59.9498311183,duckFrog,001,11,
frog,quackR.wav,20,landoltCBottom.png,V1,duckFront.png,frogFront.png,LinCong,b,-20,landoltCL.png,,,,,1,1,81,18,,,b,0,0.483957120276,,,2020_Mar_04_1424,59.9498311183,duckFrog,001,11,
duck,ribbitL.wav,-20,landoltCR.png,V1,duckFront.png,frogFront.png,HinCong,b,20,landoltCBottom.png,,,,,1,2,82,46,,,h,0,0.550678037223,,,2020_Mar_04_1424,59.9498311183,duckFrog,001,11,
duck,wnR.wav,-20,landoltCL.png,V1,duckFront.png,frogFront.png,HcongWN,h,20,landoltCTop.png,,,,,1,3,83,53,,,h,0,0.901159966947,,,2020_Mar_04_1424,59.9498311183,duckFrog,001,11,
duck,ribbitR.wav,20,landoltCBottom.png,V1,frogFront.png,duckFront.png,HinCong,b,-20,landoltCR.png,,,,,1,4,84,10,,,b,0,0.767493434076,,,2020_Mar_04_1424,59.9498311183,duckFrog,001,11,
duck,quackL.wav,20,landoltCTop.png,V1,frogFront.png,duckFront.png,Hcong,h,-20,landoltCL.png,,,,,1,5,85,64,,,h,0,0.984523266234,,,2020_Mar_04_1424,59.9498311183,duckFrog,001,11,
duck,quackL.wav,20,landoltCBottom.png,V1,frogFront.png,duckFront.png,Hcong,b,-20,landoltCR.png,,,,,1,6,86,8,,,b,0,0.884497057472,,,2020_Mar_04_1424,59.9498311183,duckFrog,001,11,
duck,quackL.wav,20,landoltCTop.png,V1,frogFront.png,duckFront.png,Hcong,h,-20,landoltCL.png,,,,,1,7,87,48,,,h,0,0.734360423667,,,2020_Mar_04_1424,59.9498311183,duckFrog,001,11,
duck,ribbitR.wav,20,landoltCBottom.png,V1,frogFront.png,duckFront.png,HinCong,b,-20,landoltCR.png,,,,,1,8,88,58,,,b,0,0.600946814549,,,2020_Mar_04_1424,59.9498311183,duckFrog,001,11,
frog,wnR.wav,-20,landoltCR.png,V1,frogFront.png,duckFront.png,LcongWN,h,20,landoltCTop.png,,,,,1,9,89,29,,,h,0,1.20115648463,,,2020_Mar_04_1424,59.9498311183,duckFrog,001,11,
duck,ribbitL.wav,-20,landoltCR.png,V1,duckFront.png,frogFront.png,HinCong,h,20,landoltCTop.png,,,,,1,10,90,38,,,h,0,1.0014434981,,,2020_Mar_04_1424,59.9498311183,duckFrog,001,11,
duck,wnL.wav,20,landoltCTop.png,V1,frogFront.png,duckFront.png,HcongWN,h,-20,landoltCR.png,,,,,1,11,91,1,,,h,0,1.03441155824,,,2020_Mar_04_1424,59.9498311183,duckFrog,001,11,
duck,wnL.wav,-20,landoltCL.png,V1,duckFront.png,frogFront.png,HinCongWN,b,20,landoltCBottom.png,,,,,1,12,92,63,,,b,0,0.750819527922,,,2020_Mar_04_1424,59.9498311183,duckFrog,001,11,
duck,quackL.wav,20,landoltCTop.png,V1,frogFront.png,duckFront.png,Hcong,h,-20,landoltCL.png,,,,,1,13,93,0,,,h,0,0.667438267381,,,2020_Mar_04_1424,59.9498311183,duckFrog,001,11,
duck,wnR.wav,20,landoltCTop.png,V1,frogFront.png,duckFront.png,HinCongWN,h,-20,landoltCR.png,,,,,1,14,94,51,,,h,0,0.867831215553,,,2020_Mar_04_1424,59.9498311183,duckFrog,001,11,
duck,wnR.wav,20,landoltCBottom.png,V1,frogFront.png,duckFront.png,HinCongWN,b,-20,landoltCL.png,,,,,1,15,95,59,,,b,0,0.70101884281,,,2020_Mar_04_1424,59.9498311183,duckFrog,001,11,
frog,quackR.wav,20,landoltCTop.png,V1,duckFront.png,frogFront.png,LinCong,h,-20,landoltCR.png,,,,,1,16,96,26,,,h,0,1.23475575447,,,2020_Mar_04_1424,59.9498311183,duckFrog,001,11,
duck,wnL.wav,-20,landoltCL.png,V1,duckFront.png,frogFront.png,HinCongWN,b,20,landoltCBottom.png,,,,,1,17,97,47,,,b,0,0.850917948235,,,2020_Mar_04_1424,59.9498311183,duckFrog,001,11,
frog,wnL.wav,-20,landoltCR.png,V1,frogFront.png,duckFront.png,LinCongWN,b,20,landoltCBottom.png,,,,,1,18,98,23,,,b,0,0.917913049227,,,2020_Mar_04_1424,59.9498311183,duckFrog,001,11,
duck,wnR.wav,20,landoltCTop.png,V1,frogFront.png,duckFront.png,HinCongWN,h,-20,landoltCR.png,,,,,1,19,99,67,,,h,0,0.951014535793,,,2020_Mar_04_1424,59.9498311183,duckFrog,001,11,
duck,wnR.wav,-20,landoltCL.png,V1,duckFront.png,frogFront.png,HcongWN,h,20,landoltCTop.png,,,,,1,20,100,37,,,h,0,1.03493426731,,,2020_Mar_04_1424,59.9498311183,duckFrog,001,11,
duck,quackL.wav,20,landoltCBottom.png,V1,frogFront.png,duckFront.png,Hcong,b,-20,landoltCR.png,,,,,1,21,101,72,,,b,0,0.700894580281,,,2020_Mar_04_1424,59.9498311183,duckFrog,001,11,
duck,ribbitR.wav,20,landoltCBottom.png,V1,frogFront.png,duckFront.png,HinCong,b,-20,landoltCR.png,,,,,1,22,102,42,,,b,0,0.667769267573,,,2020_Mar_04_1424,59.9498311183,duckFrog,001,11,
frog,wnR.wav,-20,landoltCR.png,V1,frogFront.png,duckFront.png,LcongWN,b,20,landoltCBottom.png,,,,,1,23,103,21,,,b,0,0.951002439426,,,2020_Mar_04_1424,59.9498311183,duckFrog,001,11,
duck,wnR.wav,20,landoltCBottom.png,V1,frogFront.png,duckFront.png,HinCongWN,b,-20,landoltCL.png,,,,,1,24,104,75,,,b,0,0.750810730562,,,2020_Mar_04_1424,59.9498311183,duckFrog,001,11,
duck,wnR.wav,-20,landoltCL.png,V1,duckFront.png,frogFront.png,HcongWN,h,20,landoltCTop.png,,,,,1,25,105,5,,,h,0,1.21784615269,,,2020_Mar_04_1424,59.9498311183,duckFrog,001,11,
frog,wnR.wav,20,landoltCBottom.png,V1,duckFront.png,frogFront.png,LinCongWN,b,-20,landoltCR.png,,,,,1,26,106,19,,,b,0,1.06771685006,,,2020_Mar_04_1424,59.9498311183,duckFrog,001,11,
duck,wnL.wav,20,landoltCTop.png,V1,frogFront.png,duckFront.png,HcongWN,h,-20,landoltCR.png,,,,,1,27,107,65,,,h,0,0.801061913167,,,2020_Mar_04_1424,59.9498311183,duckFrog,001,11,
duck,ribbitL.wav,-20,landoltCR.png,V1,duckFront.png,frogFront.png,HinCong,h,20,landoltCTop.png,,,,,1,28,108,54,,,b,0,1.08444977173,,,2020_Mar_04_1424,59.9498311183,duckFrog,001,11,
duck,ribbitL.wav,-20,landoltCR.png,V1,duckFront.png,frogFront.png,HinCong,h,20,landoltCTop.png,,,,,1,29,109,6,,,h,0,0.717671488703,,,2020_Mar_04_1424,59.9498311183,duckFrog,001,11,
duck,wnL.wav,20,landoltCBottom.png,V1,frogFront.png,duckFront.png,HcongWN,b,-20,landoltCL.png,,,,,1,30,110,9,,,b,0,1.08439368865,,,2020_Mar_04_1424,59.9498311183,duckFrog,001,11,
frog,wnL.wav,20,landoltCTop.png,V1,duckFront.png,frogFront.png,LcongWN,h,-20,landoltCL.png,,,,,1,31,111,25,,,h,0,1.0842734582,,,2020_Mar_04_1424,59.9498311183,duckFrog,001,11,
duck,wnR.wav,-20,landoltCL.png,V1,duckFront.png,frogFront.png,HcongWN,h,20,landoltCTop.png,,,,,1,32,112,69,,,h,0,1.01729851784,,,2020_Mar_04_1424,59.9498311183,duckFrog,001,11,
duck,ribbitR.wav,20,landoltCTop.png,V1,frogFront.png,duckFront.png,HinCong,h,-20,landoltCL.png,,,,,1,33,113,2,,,h,0,0.684175954288,,,2020_Mar_04_1424,59.9498311183,duckFrog,001,11,
duck,wnR.wav,20,landoltCBottom.png,V1,frogFront.png,duckFront.png,HinCongWN,b,-20,landoltCL.png,,,,,1,34,114,11,,,b,0,0.634329816239,,,2020_Mar_04_1424,59.9498311183,duckFrog,001,11,
duck,quackL.wav,20,landoltCBottom.png,V1,frogFront.png,duckFront.png,Hcong,b,-20,landoltCR.png,,,,,1,35,115,40,,,b,0,1.00175836985,,,2020_Mar_04_1424,59.9498311183,duckFrog,001,11,
duck,quackR.wav,-20,landoltCR.png,V1,duckFront.png,frogFront.png,Hcong,b,20,landoltCBottom.png,,,,,1,36,116,76,,,b,0,1.36800038122,,,2020_Mar_04_1424,59.9498311183,duckFrog,001,11,
duck,wnL.wav,-20,landoltCL.png,V1,duckFront.png,frogFront.png,HinCongWN,h,20,landoltCTop.png,,,,,1,37,117,55,,,h,0,1.83549693102,,,2020_Mar_04_1424,59.9498311183,duckFrog,001,11,
duck,wnR.wav,-20,landoltCL.png,V1,duckFront.png,frogFront.png,HcongWN,b,20,landoltCBottom.png,,,,,1,38,118,13,,,b,0,1.01787950934,,,2020_Mar_04_1424,59.9498311183,duckFrog,001,11,
duck,quackL.wav,20,landoltCTop.png,V1,frogFront.png,duckFront.png,Hcong,h,-20,landoltCL.png,,,,,1,39,119,32,,,h,0,1.53481385362,,,2020_Mar_04_1424,59.9498311183,duckFrog,001,11,
duck,wnL.wav,-20,landoltCL.png,V1,duckFront.png,frogFront.png,HinCongWN,b,20,landoltCBottom.png,,,,,1,40,120,79,,,b,0,0.984316895134,,,2020_Mar_04_1424,59.9498311183,duckFrog,001,11,
duck,ribbitR.wav,20,landoltCTop.png,V1,frogFront.png,duckFront.png,HinCong,h,-20,landoltCL.png,,,,,1,41,121,50,,,h,0,0.684096045065,,,2020_Mar_04_1424,59.9498311183,duckFrog,001,11,
duck,quackL.wav,20,landoltCBottom.png,V1,frogFront.png,duckFront.png,Hcong,b,-20,landoltCR.png,,,,,1,42,122,56,,,b,0,0.867808122508,,,2020_Mar_04_1424,59.9498311183,duckFrog,001,11,
duck,quackR.wav,-20,landoltCR.png,V1,duckFront.png,frogFront.png,Hcong,b,20,landoltCBottom.png,,,,,1,43,123,12,,,b,0,0.934279414738,,,2020_Mar_04_1424,59.9498311183,duckFrog,001,11,
frog,ribbitR.wav,-20,landoltCL.png,V1,frogFront.png,duckFront.png,Lcong,b,20,landoltCBottom.png,,,,,1,44,124,20,,,b,0,1.13468775831,,,2020_Mar_04_1424,59.9498311183,duckFrog,001,11,
duck,wnL.wav,-20,landoltCL.png,V1,duckFront.png,frogFront.png,HinCongWN,h,20,landoltCTop.png,,,,,1,45,125,39,,,h,0,1.38485060085,,,2020_Mar_04_1424,59.9498311183,duckFrog,001,11,
frog,ribbitL.wav,20,landoltCTop.png,V1,duckFront.png,frogFront.png,Lcong,h,-20,landoltCR.png,,,,,1,46,126,24,,,h,0,1.25121962395,,,2020_Mar_04_1424,59.9498311183,duckFrog,001,11,
frog,ribbitR.wav,-20,landoltCL.png,V1,frogFront.png,duckFront.png,Lcong,h,20,landoltCTop.png,,,,,1,47,127,28,,,h,0,1.20119240717,,,2020_Mar_04_1424,59.9498311183,duckFrog,001,11,
duck,wnR.wav,20,landoltCTop.png,V1,frogFront.png,duckFront.png,HinCongWN,h,-20,landoltCR.png,,,,,1,48,128,35,,,h,0,1.03446874101,,,2020_Mar_04_1424,59.9498311183,duckFrog,001,11,
duck,ribbitR.wav,20,landoltCTop.png,V1,frogFront.png,duckFront.png,HinCong,h,-20,landoltCL.png,,,,,1,49,129,66,,,h,0,1.46855772985,,,2020_Mar_04_1424,59.9498311183,duckFrog,001,11,
frog,ribbitL.wav,20,landoltCBottom.png,V1,duckFront.png,frogFront.png,Lcong,b,-20,landoltCL.png,,,,,1,50,130,16,,,b,0,0.867836347345,,,2020_Mar_04_1424,59.9498311183,duckFrog,001,11,
duck,ribbitL.wav,-20,landoltCR.png,V1,duckFront.png,frogFront.png,HinCong,b,20,landoltCBottom.png,,,,,1,51,131,14,,,b,0,1.13446159314,,,2020_Mar_04_1424,59.9498311183,duckFrog,001,11,
duck,ribbitR.wav,20,landoltCTop.png,V1,frogFront.png,duckFront.png,HinCong,h,-20,landoltCL.png,,,,,1,52,132,34,,,h,0,1.6015061792,,,2020_Mar_04_1424,59.9498311183,duckFrog,001,11,
duck,wnL.wav,-20,landoltCL.png,V1,duckFront.png,frogFront.png,HinCongWN,b,20,landoltCBottom.png,,,,,1,53,133,15,,,b,0,1.48472138983,,,2020_Mar_04_1424,59.9498311183,duckFrog,001,11,
frog,quackL.wav,-20,landoltCL.png,V1,frogFront.png,duckFront.png,LinCong,b,20,landoltCBottom.png,,,,,1,54,134,22,,,b,0,1.46838691467,,,2020_Mar_04_1424,59.9498311183,duckFrog,001,11,
duck,wnR.wav,-20,landoltCL.png,V1,duckFront.png,frogFront.png,HcongWN,b,20,landoltCBottom.png,,,,,1,55,135,45,,,b,0,1.55130154925,,,2020_Mar_04_1424,59.9498311183,duckFrog,001,11,
duck,quackR.wav,-20,landoltCR.png,V1,duckFront.png,frogFront.png,Hcong,h,20,landoltCTop.png,,,,,1,56,136,36,,,h,0,1.05124968156,,,2020_Mar_04_1424,59.9498311183,duckFrog,001,11,
duck,wnR.wav,-20,landoltCL.png,V1,duckFront.png,frogFront.png,HcongWN,b,20,landoltCBottom.png,,,,,1,57,137,61,,,b,0,0.917837905203,,,2020_Mar_04_1424,59.9498311183,duckFrog,001,11,
duck,wnL.wav,20,landoltCBottom.png,V1,frogFront.png,duckFront.png,HcongWN,b,-20,landoltCL.png,,,,,1,58,138,57,,,b,0,0.500662916806,,,2020_Mar_04_1424,59.9498311183,duckFrog,001,11,
duck,wnR.wav,20,landoltCTop.png,V1,frogFront.png,duckFront.png,HinCongWN,h,-20,landoltCR.png,,,,,1,59,139,3,,,h,0,0.517517535132,,,2020_Mar_04_1424,59.9498311183,duckFrog,001,11,
duck,wnL.wav,20,landoltCTop.png,V1,frogFront.png,duckFront.png,HcongWN,h,-20,landoltCR.png,,,,,1,60,140,33,,,h,0,0.55087047923,,,2020_Mar_04_1424,59.9498311183,duckFrog,001,11,
duck,wnR.wav,-20,landoltCL.png,V1,duckFront.png,frogFront.png,HcongWN,b,20,landoltCBottom.png,,,,,1,61,141,77,,,b,0,1.05107996604,,,2020_Mar_04_1424,59.9498311183,duckFrog,001,11,
duck,wnR.wav,20,landoltCBottom.png,V1,frogFront.png,duckFront.png,HinCongWN,b,-20,landoltCL.png,,,,,1,62,142,43,,,b,0,0.717490043433,,,2020_Mar_04_1424,59.9498311183,duckFrog,001,11,
duck,ribbitR.wav,20,landoltCBottom.png,V1,frogFront.png,duckFront.png,HinCong,b,-20,landoltCR.png,,,,,1,63,143,74,,,b,0,0.584407434479,,,2020_Mar_04_1424,59.9498311183,duckFrog,001,11,
duck,ribbitL.wav,-20,landoltCR.png,V1,duckFront.png,frogFront.png,HinCong,h,20,landoltCTop.png,,,,,1,64,144,70,,,h,0,1.23453948635,,,2020_Mar_04_1424,59.9498311183,duckFrog,001,11,
frog,wnR.wav,20,landoltCTop.png,V1,duckFront.png,frogFront.png,LinCongWN,h,-20,landoltCL.png,,,,,1,65,145,27,,,h,0,1.50141948869,,,2020_Mar_04_1424,59.9498311183,duckFrog,001,11,
duck,wnL.wav,20,landoltCBottom.png,V1,frogFront.png,duckFront.png,HcongWN,b,-20,landoltCL.png,,,,,1,66,146,41,,,b,0,0.934568261,,,2020_Mar_04_1424,59.9498311183,duckFrog,001,11,
frog,wnL.wav,-20,landoltCR.png,V1,frogFront.png,duckFront.png,LinCongWN,h,20,landoltCTop.png,,,,,1,67,147,31,,,h,0,1.21784322025,,,2020_Mar_04_1424,59.9498311183,duckFrog,001,11,
duck,quackR.wav,-20,landoltCR.png,V1,duckFront.png,frogFront.png,Hcong,h,20,landoltCTop.png,,,,,1,68,148,52,,,h,0,1.13466613149,,,2020_Mar_04_1424,59.9498311183,duckFrog,001,11,
duck,quackR.wav,-20,landoltCR.png,V1,duckFront.png,frogFront.png,Hcong,h,20,landoltCTop.png,,,,,1,69,149,68,,,h,0,1.00086690529,,,2020_Mar_04_1424,59.9498311183,duckFrog,001,11,
duck,wnL.wav,20,landoltCBottom.png,V1,frogFront.png,duckFront.png,HcongWN,b,-20,landoltCL.png,,,,,1,70,150,73,,,b,0,1.13405581552,,,2020_Mar_04_1424,59.9498311183,duckFrog,001,11,
duck,wnL.wav,-20,landoltCL.png,V1,duckFront.png,frogFront.png,HinCongWN,h,20,landoltCTop.png,,,,,1,71,151,7,,,h,0,0.900850960112,,,2020_Mar_04_1424,59.9498311183,duckFrog,001,11,
frog,quackL.wav,-20,landoltCL.png,V1,frogFront.png,duckFront.png,LinCong,h,20,landoltCTop.png,,,,,1,72,152,30,,,h,0,1.06793824997,,,2020_Mar_04_1424,59.9498311183,duckFrog,001,11,
frog,wnL.wav,20,landoltCBottom.png,V1,duckFront.png,frogFront.png,LcongWN,b,-20,landoltCR.png,,,,,1,73,153,17,,,b,0,0.884205645329,,,2020_Mar_04_1424,59.9498311183,duckFrog,001,11,
duck,ribbitL.wav,-20,landoltCR.png,V1,duckFront.png,frogFront.png,HinCong,b,20,landoltCBottom.png,,,,,1,74,154,62,,,b,0,1.56812904243,,,2020_Mar_04_1424,59.9498311183,duckFrog,001,11,
duck,wnL.wav,-20,landoltCL.png,V1,duckFront.png,frogFront.png,HinCongWN,h,20,landoltCTop.png,,,,,1,75,155,71,,,h,0,1.08464844516,,,2020_Mar_04_1424,59.9498311183,duckFrog,001,11,
duck,wnL.wav,20,landoltCTop.png,V1,frogFront.png,duckFront.png,HcongWN,h,-20,landoltCR.png,,,,,1,76,156,49,,,h,0,0.784125919366,,,2020_Mar_04_1424,59.9498311183,duckFrog,001,11,
duck,ribbitL.wav,-20,landoltCR.png,V1,duckFront.png,frogFront.png,HinCong,b,20,landoltCBottom.png,,,,,1,77,157,78,,,b,0,1.08448935978,,,2020_Mar_04_1424,59.9498311183,duckFrog,001,11,
duck,quackR.wav,-20,landoltCR.png,V1,duckFront.png,frogFront.png,Hcong,b,20,landoltCBottom.png,,,,,1,78,158,44,,,b,0,0.851158409059,,,2020_Mar_04_1424,59.9498311183,duckFrog,001,11,
duck,quackR.wav,-20,landoltCR.png,V1,duckFront.png,frogFront.png,Hcong,h,20,landoltCTop.png,,,,,1,79,159,4,,,h,0,0.917829474434,,,2020_Mar_04_1424,59.9498311183,duckFrog,001,11,
duck,wnR.wav,-20,landoltCL.png,V1,duckFront.png,frogFront.png,HcongWN,b,20,landoltCBottom.png,,,,,2,0,160,13,,,b,0,0.851121020329,,,2020_Mar_04_1424,59.9498311183,duckFrog,001,11,
frog,wnR.wav,-20,landoltCR.png,V1,frogFront.png,duckFront.png,LcongWN,b,20,landoltCBottom.png,,,,,2,1,161,21,,,b,0,1.75186128047,,,2020_Mar_04_1424,59.9498311183,duckFrog,001,11,
frog,quackR.wav,20,landoltCBottom.png,V1,duckFront.png,frogFront.png,LinCong,b,-20,landoltCL.png,,,,,2,2,162,18,,,b,0,0.784191899467,,,2020_Mar_04_1424,59.9498311183,duckFrog,001,11,
duck,wnR.wav,-20,landoltCL.png,V1,duckFront.png,frogFront.png,HcongWN,h,20,landoltCTop.png,,,,,2,3,163,69,,,h,0,1.23452812311,,,2020_Mar_04_1424,59.9498311183,duckFrog,001,11,
duck,wnR.wav,-20,landoltCL.png,V1,duckFront.png,frogFront.png,HcongWN,h,20,landoltCTop.png,,,,,2,4,164,37,,,h,0,1.00126718462,,,2020_Mar_04_1424,59.9498311183,duckFrog,001,11,
duck,ribbitL.wav,-20,landoltCR.png,V1,duckFront.png,frogFront.png,HinCong,b,20,landoltCBottom.png,,,,,2,5,165,62,,,b,0,0.567748923699,,,2020_Mar_04_1424,59.9498311183,duckFrog,001,11,
duck,wnL.wav,-20,landoltCL.png,V1,duckFront.png,frogFront.png,HinCongWN,h,20,landoltCTop.png,,,,,2,6,166,7,,,h,0,0.851129084593,,,2020_Mar_04_1424,59.9498311183,duckFrog,001,11,
duck,wnR.wav,20,landoltCBottom.png,V1,frogFront.png,duckFront.png,HinCongWN,b,-20,landoltCL.png,,,,,2,7,167,75,,,b,0,0.784200330265,,,2020_Mar_04_1424,59.9498311183,duckFrog,001,11,
duck,quackR.wav,-20,landoltCR.png,V1,duckFront.png,frogFront.png,Hcong,h,20,landoltCTop.png,,,,,2,8,168,36,,,h,0,0.76713824115,,,2020_Mar_04_1424,59.9498311183,duckFrog,001,11,
frog,wnR.wav,20,landoltCBottom.png,V1,duckFront.png,frogFront.png,LinCongWN,b,-20,landoltCR.png,,,,,2,9,169,19,,,b,0,1.25123465274,,,2020_Mar_04_1424,59.9498311183,duckFrog,001,11,
duck,ribbitR.wav,20,landoltCTop.png,V1,frogFront.png,duckFront.png,HinCong,h,-20,landoltCL.png,,,,,2,10,170,34,,,h,0,0.517557856307,,,2020_Mar_04_1424,59.9498311183,duckFrog,001,11,
duck,wnL.wav,20,landoltCTop.png,V1,frogFront.png,duckFront.png,HcongWN,h,-20,landoltCR.png,,,,,2,11,171,33,,,h,0,0.701018109714,,,2020_Mar_04_1424,59.9498311183,duckFrog,001,11,
duck,ribbitL.wav,-20,landoltCR.png,V1,duckFront.png,frogFront.png,HinCong,b,20,landoltCBottom.png,,,,,2,12,172,78,,,b,0,0.550642114744,,,2020_Mar_04_1424,59.9498311183,duckFrog,001,11,
duck,wnR.wav,20,landoltCBottom.png,V1,frogFront.png,duckFront.png,HinCongWN,b,-20,landoltCL.png,,,,,2,13,173,43,,,b,0,0.700814304495,,,2020_Mar_04_1424,59.9498311183,duckFrog,001,11,
frog,quackL.wav,-20,landoltCL.png,V1,frogFront.png,duckFront.png,LinCong,h,20,landoltCTop.png,,,,,2,14,174,30,,,h,0,1.10111707987,,,2020_Mar_04_1424,59.9498311183,duckFrog,001,11,
frog,ribbitL.wav,20,landoltCBottom.png,V1,duckFront.png,frogFront.png,Lcong,b,-20,landoltCL.png,,,,,2,15,175,16,,,b,0,0.634064429585,,,2020_Mar_04_1424,59.9498311183,duckFrog,001,11,
frog,wnL.wav,-20,landoltCR.png,V1,frogFront.png,duckFront.png,LinCongWN,b,20,landoltCBottom.png,,,,,2,16,176,23,,,b,0,0.517284405418,,,2020_Mar_04_1424,59.9498311183,duckFrog,001,11,
duck,quackL.wav,20,landoltCTop.png,V1,frogFront.png,duckFront.png,Hcong,h,-20,landoltCL.png,,,,,2,17,177,0,,,h,0,0.850921247242,,,2020_Mar_04_1424,59.9498311183,duckFrog,001,11,
duck,wnL.wav,-20,landoltCL.png,V1,duckFront.png,frogFront.png,HinCongWN,h,20,landoltCTop.png,,,,,2,18,178,71,,,h,0,1.384583748,,,2020_Mar_04_1424,59.9498311183,duckFrog,001,11,
frog,ribbitR.wav,-20,landoltCL.png,V1,frogFront.png,duckFront.png,Lcong,b,20,landoltCBottom.png,,,,,2,19,179,20,,,b,0,1.01792862784,,,2020_Mar_04_1424,59.9498311183,duckFrog,001,11,
duck,wnR.wav,20,landoltCTop.png,V1,frogFront.png,duckFront.png,HinCongWN,h,-20,landoltCR.png,,,,,2,20,180,51,,,h,0,0.951010137127,,,2020_Mar_04_1424,59.9498311183,duckFrog,001,11,
frog,wnR.wav,20,landoltCTop.png,V1,duckFront.png,frogFront.png,LinCongWN,h,-20,landoltCL.png,,,,,2,21,181,27,,,h,0,1.28477160801,,,2020_Mar_04_1424,59.9498311183,duckFrog,001,11,
duck,wnL.wav,-20,landoltCL.png,V1,duckFront.png,frogFront.png,HinCongWN,b,20,landoltCBottom.png,,,,,2,22,182,15,,,b,0,0.900949930277,,,2020_Mar_04_1424,59.9498311183,duckFrog,001,11,
duck,wnL.wav,20,landoltCBottom.png,V1,frogFront.png,duckFront.png,HcongWN,b,-20,landoltCL.png,,,,,2,23,183,57,,,b,0,0.634049400775,,,2020_Mar_04_1424,59.9498311183,duckFrog,001,11,
duck,ribbitR.wav,20,landoltCBottom.png,V1,frogFront.png,duckFront.png,HinCong,b,-20,landoltCR.png,,,,,2,24,184,58,,,b,0,0.784416598413,,,2020_Mar_04_1424,59.9498311183,duckFrog,001,11,
frog,wnL.wav,-20,landoltCR.png,V1,frogFront.png,duckFront.png,LinCongWN,h,20,landoltCTop.png,,,,,2,25,185,31,,,h,0,1.16790837562,,,2020_Mar_04_1424,59.9498311183,duckFrog,001,11,
duck,quackR.wav,-20,landoltCR.png,V1,duckFront.png,frogFront.png,Hcong,b,20,landoltCBottom.png,,,,,2,26,186,44,,,b,0,0.550926195778,,,2020_Mar_04_1424,59.9498311183,duckFrog,001,11,
frog,wnL.wav,20,landoltCTop.png,V1,duckFront.png,frogFront.png,LcongWN,h,-20,landoltCL.png,,,,,2,27,187,25,,,h,0,0.850935542927,,,2020_Mar_04_1424,59.9498311183,duckFrog,001,11,
duck,quackL.wav,20,landoltCTop.png,V1,frogFront.png,duckFront.png,Hcong,h,-20,landoltCL.png,,,,,2,28,188,32,,,h,0,0.767736460781,,,2020_Mar_04_1424,59.9498311183,duckFrog,001,11,
duck,wnR.wav,20,landoltCTop.png,V1,frogFront.png,duckFront.png,HinCongWN,h,-20,landoltCR.png,,,,,2,29,189,3,,,h,0,0.584260812029,,,2020_Mar_04_1424,59.9498311183,duckFrog,001,11,
duck,wnL.wav,-20,landoltCL.png,V1,duckFront.png,frogFront.png,HinCongWN,h,20,landoltCTop.png,,,,,2,30,190,55,,,h,0,0.700382867915,,,2020_Mar_04_1424,59.9498311183,duckFrog,001,11,
duck,wnR.wav,-20,landoltCL.png,V1,duckFront.png,frogFront.png,HcongWN,h,20,landoltCTop.png,,,,,2,31,191,5,,,h,0,0.667663332832,,,2020_Mar_04_1424,59.9498311183,duckFrog,001,11,
duck,wnR.wav,20,landoltCBottom.png,V1,frogFront.png,duckFront.png,HinCongWN,b,-20,landoltCL.png,,,,,2,32,192,11,,,b,0,0.700784613437,,,2020_Mar_04_1424,59.9498311183,duckFrog,001,11,
duck,wnL.wav,20,landoltCBottom.png,V1,frogFront.png,duckFront.png,HcongWN,b,-20,landoltCL.png,,,,,2,33,193,9,,,b,0,0.88448679389,,,2020_Mar_04_1424,59.9498311183,duckFrog,001,11,
duck,ribbitR.wav,20,landoltCTop.png,V1,frogFront.png,duckFront.png,HinCong,h,-20,landoltCL.png,,,,,2,34,194,50,,,h,0,0.550884774915,,,2020_Mar_04_1424,59.9498311183,duckFrog,001,11,
duck,wnR.wav,20,landoltCTop.png,V1,frogFront.png,duckFront.png,HinCongWN,h,-20,landoltCR.png,,,,,2,35,195,67,,,h,0,0.801095636358,,,2020_Mar_04_1424,59.9498311183,duckFrog,001,11,
duck,wnR.wav,-20,landoltCL.png,V1,duckFront.png,frogFront.png,HcongWN,b,20,landoltCBottom.png,,,,,2,36,196,61,,,b,0,0.600711118954,,,2020_Mar_04_1424,59.9498311183,duckFrog,001,11,
duck,ribbitL.wav,-20,landoltCR.png,V1,duckFront.png,frogFront.png,HinCong,b,20,landoltCBottom.png,,,,,2,37,197,14,,,b,0,1.30647613079,,,2020_Mar_04_1424,59.9498311183,duckFrog,001,11,
duck,ribbitR.wav,20,landoltCTop.png,V1,frogFront.png,duckFront.png,HinCong,h,-20,landoltCL.png,,,,,2,38,198,2,,,h,0,0.634073960042,,,2020_Mar_04_1424,59.9498311183,duckFrog,001,11,
duck,wnL.wav,20,landoltCTop.png,V1,frogFront.png,duckFront.png,HcongWN,h,-20,landoltCR.png,,,,,2,39,199,49,,,h,0,0.801168214442,,,2020_Mar_04_1424,59.9498311183,duckFrog,001,11,
duck,ribbitL.wav,-20,landoltCR.png,V1,duckFront.png,frogFront.png,HinCong,h,20,landoltCTop.png,,,,,2,40,200,70,,,h,0,0.584063604823,,,2020_Mar_04_1424,59.9498311183,duckFrog,001,11,
duck,wnL.wav,-20,landoltCL.png,V1,duckFront.png,frogFront.png,HinCongWN,b,20,landoltCBottom.png,,,,,2,41,201,79,,,b,0,0.634414857253,,,2020_Mar_04_1424,59.9498311183,duckFrog,001,11,
duck,wnR.wav,20,landoltCBottom.png,V1,frogFront.png,duckFront.png,HinCongWN,b,-20,landoltCL.png,,,,,2,42,202,59,,,b,0,0.467260121077,,,2020_Mar_04_1424,59.9498311183,duckFrog,001,11,
duck,quackR.wav,-20,landoltCR.png,V1,duckFront.png,frogFront.png,Hcong,h,20,landoltCTop.png,,,,,2,43,203,68,,,h,0,0.617378427065,,,2020_Mar_04_1424,59.9498311183,duckFrog,001,11,
duck,quackR.wav,-20,landoltCR.png,V1,duckFront.png,frogFront.png,Hcong,h,20,landoltCTop.png,,,,,2,44,204,4,,,h,0,0.433741127054,,,2020_Mar_04_1424,59.9498311183,duckFrog,001,11,
duck,wnL.wav,-20,landoltCL.png,V1,duckFront.png,frogFront.png,HinCongWN,b,20,landoltCBottom.png,,,,,2,45,205,47,,,b,0,0.550881475909,,,2020_Mar_04_1424,59.9498311183,duckFrog,001,11,
duck,wnL.wav,20,landoltCTop.png,V1,frogFront.png,duckFront.png,HcongWN,h,-20,landoltCR.png,,,,,2,46,206,1,,,h,0,0.450603809615,,,2020_Mar_04_1424,59.9498311183,duckFrog,001,11,
duck,quackR.wav,-20,landoltCR.png,V1,duckFront.png,frogFront.png,Hcong,h,20,landoltCTop.png,,,,,2,47,207,52,,,h,0,0.450600877171,,,2020_Mar_04_1424,59.9498311183,duckFrog,001,11,
duck,ribbitL.wav,-20,landoltCR.png,V1,duckFront.png,frogFront.png,HinCong,h,20,landoltCTop.png,,,,,2,48,208,38,,,h,0,0.367400695337,,,2020_Mar_04_1424,59.9498311183,duckFrog,001,11,
duck,ribbitL.wav,-20,landoltCR.png,V1,duckFront.png,frogFront.png,HinCong,h,20,landoltCTop.png,,,,,2,49,209,54,,,h,0,0.500845095201,,,2020_Mar_04_1424,59.9498311183,duckFrog,001,11,
duck,quackR.wav,-20,landoltCR.png,V1,duckFront.png,frogFront.png,Hcong,b,20,landoltCBottom.png,,,,,2,50,210,12,,,b,0,0.701010045479,,,2020_Mar_04_1424,59.9498311183,duckFrog,001,11,
duck,wnL.wav,20,landoltCTop.png,V1,frogFront.png,duckFront.png,HcongWN,h,-20,landoltCR.png,,,,,2,51,211,65,,,h,0,0.584040878341,,,2020_Mar_04_1424,59.9498311183,duckFrog,001,11,
duck,quackL.wav,20,landoltCBottom.png,V1,frogFront.png,duckFront.png,Hcong,b,-20,landoltCR.png,,,,,2,52,212,40,,,b,0,0.684296551248,,,2020_Mar_04_1424,59.9498311183,duckFrog,001,11,
duck,wnR.wav,-20,landoltCL.png,V1,duckFront.png,frogFront.png,HcongWN,h,20,landoltCTop.png,,,,,2,53,213,53,,,h,0,0.317144014407,,,2020_Mar_04_1424,59.9498311183,duckFrog,001,11,
duck,quackL.wav,20,landoltCTop.png,V1,frogFront.png,duckFront.png,Hcong,h,-20,landoltCL.png,,,,,2,54,214,64,,,h,0,0.467269284971,,,2020_Mar_04_1424,59.9498311183,duckFrog,001,11,
duck,wnR.wav,20,landoltCTop.png,V1,frogFront.png,duckFront.png,HinCongWN,h,-20,landoltCR.png,,,,,2,55,215,35,,,h,0,0.650983195228,,,2020_Mar_04_1424,59.9498311183,duckFrog,001,11,
duck,ribbitR.wav,20,landoltCBottom.png,V1,frogFront.png,duckFront.png,HinCong,b,-20,landoltCR.png,,,,,2,56,216,42,,,b,0,0.600972473476,,,2020_Mar_04_1424,59.9498311183,duckFrog,001,11,
duck,quackL.wav,20,landoltCTop.png,V1,frogFront.png,duckFront.png,Hcong,h,-20,landoltCL.png,,,,,2,57,217,48,,,h,0,0.434123078565,,,2020_Mar_04_1424,59.9498311183,duckFrog,001,11,
duck,quackL.wav,20,landoltCBottom.png,V1,frogFront.png,duckFront.png,Hcong,b,-20,landoltCR.png,,,,,2,58,218,8,,,b,0,0.450792586053,,,2020_Mar_04_1424,59.9498311183,duckFrog,001,11,
duck,wnL.wav,-20,landoltCL.png,V1,duckFront.png,frogFront.png,HinCongWN,h,20,landoltCTop.png,,,,,2,59,219,39,,,h,0,0.583619338751,,,2020_Mar_04_1424,59.9498311183,duckFrog,001,11,
duck,ribbitR.wav,20,landoltCBottom.png,V1,frogFront.png,duckFront.png,HinCong,b,-20,landoltCR.png,,,,,2,60,220,74,,,b,0,0.834214351024,,,2020_Mar_04_1424,59.9498311183,duckFrog,001,11,
duck,wnL.wav,-20,landoltCL.png,V1,duckFront.png,frogFront.png,HinCongWN,b,20,landoltCBottom.png,,,,,2,61,221,63,,,b,0,0.667439000477,,,2020_Mar_04_1424,59.9498311183,duckFrog,001,11,
duck,wnR.wav,-20,landoltCL.png,V1,duckFront.png,frogFront.png,HcongWN,b,20,landoltCBottom.png,,,,,2,62,222,45,,,b,0,0.484175954276,,,2020_Mar_04_1424,59.9498311183,duckFrog,001,11,
frog,ribbitL.wav,20,landoltCTop.png,V1,duckFront.png,frogFront.png,Lcong,h,-20,landoltCR.png,,,,,2,63,223,24,,,h,0,1.21784322028,,,2020_Mar_04_1424,59.9498311183,duckFrog,001,11,
duck,quackL.wav,20,landoltCBottom.png,V1,frogFront.png,duckFront.png,Hcong,b,-20,landoltCR.png,,,,,2,64,224,56,,,b,0,0.584289403399,,,2020_Mar_04_1424,59.9498311183,duckFrog,001,11,
duck,wnR.wav,-20,landoltCL.png,V1,duckFront.png,frogFront.png,HcongWN,b,20,landoltCBottom.png,,,,,2,65,225,77,,,b,0,1.18451410235,,,2020_Mar_04_1424,59.9498311183,duckFrog,001,11,
duck,quackR.wav,-20,landoltCR.png,V1,duckFront.png,frogFront.png,Hcong,b,20,landoltCBottom.png,,,,,2,66,226,76,,,b,0,0.550902369578,,,2020_Mar_04_1424,59.9498311183,duckFrog,001,11,
duck,quackL.wav,20,landoltCBottom.png,V1,frogFront.png,duckFront.png,Hcong,b,-20,landoltCR.png,,,,,2,67,227,72,,,b,0,0.50069810616,,,2020_Mar_04_1424,59.9498311183,duckFrog,001,11,
duck,wnL.wav,20,landoltCBottom.png,V1,frogFront.png,duckFront.png,HcongWN,b,-20,landoltCL.png,,,,,2,68,228,73,,,b,0,0.934548466961,,,2020_Mar_04_1424,59.9498311183,duckFrog,001,11,
frog,ribbitR.wav,-20,landoltCL.png,V1,frogFront.png,duckFront.png,Lcong,h,20,landoltCTop.png,,,,,2,69,229,28,,,h,0,1.2512141256,,,2020_Mar_04_1424,59.9498311183,duckFrog,001,11,
frog,quackL.wav,-20,landoltCL.png,V1,frogFront.png,duckFront.png,LinCong,b,20,landoltCBottom.png,,,,,2,70,230,22,,,b,0,0.567519459524,,,2020_Mar_04_1424,59.9498311183,duckFrog,001,11,
duck,ribbitR.wav,20,landoltCBottom.png,V1,frogFront.png,duckFront.png,HinCong,b,-20,landoltCR.png,,,,,2,71,231,10,,,b,0,1.16780390713,,,2020_Mar_04_1424,59.9498311183,duckFrog,001,11,
duck,ribbitL.wav,-20,landoltCR.png,V1,duckFront.png,frogFront.png,HinCong,h,20,landoltCTop.png,,,,,2,72,232,6,,,h,0,0.900941866043,,,2020_Mar_04_1424,59.9498311183,duckFrog,001,11,
duck,wnL.wav,20,landoltCBottom.png,V1,frogFront.png,duckFront.png,HcongWN,b,-20,landoltCL.png,,,,,2,73,233,41,,,b,0,0.550602160103,,,2020_Mar_04_1424,59.9498311183,duckFrog,001,11,
frog,wnR.wav,-20,landoltCR.png,V1,frogFront.png,duckFront.png,LcongWN,h,20,landoltCTop.png,,,,,2,74,234,29,,,h,0,0.984415132174,,,2020_Mar_04_1424,59.9498311183,duckFrog,001,11,
duck,ribbitR.wav,20,landoltCTop.png,V1,frogFront.png,duckFront.png,HinCong,h,-20,landoltCL.png,,,,,2,75,235,66,,,h,0,1.01771712495,,,2020_Mar_04_1424,59.9498311183,duckFrog,001,11,
duck,ribbitL.wav,-20,landoltCR.png,V1,duckFront.png,frogFront.png,HinCong,b,20,landoltCBottom.png,,,,,2,76,236,46,,,b,0,0.550665940886,,,2020_Mar_04_1424,59.9498311183,duckFrog,001,11,
frog,quackR.wav,20,landoltCTop.png,V1,duckFront.png,frogFront.png,LinCong,h,-20,landoltCR.png,,,,,2,77,237,26,,,h,0,1.43468427603,,,2020_Mar_04_1424,59.9498311183,duckFrog,001,11,
frog,wnL.wav,20,landoltCBottom.png,V1,duckFront.png,frogFront.png,LcongWN,b,-20,landoltCR.png,,,,,2,78,238,17,,,b,0,0.517556023522,,,2020_Mar_04_1424,59.9498311183,duckFrog,001,11,
duck,quackR.wav,-20,landoltCR.png,V1,duckFront.png,frogFront.png,Hcong,b,20,landoltCBottom.png,,,,,2,79,239,60,,,b,0,1.31795630284,,,2020_Mar_04_1424,59.9498311183,duckFrog,001,11,
frog,ribbitR.wav,-20,landoltCL.png,V1,frogFront.png,duckFront.png,Lcong,b,20,landoltCBottom.png,,,,,3,0,240,20,,,b,0,0.46746319317,,,2020_Mar_04_1424,59.9498311183,duckFrog,001,11,
duck,wnR.wav,20,landoltCTop.png,V1,frogFront.png,duckFront.png,HinCongWN,h,-20,landoltCR.png,,,,,3,1,241,51,,,h,0,1.28460482499,,,2020_Mar_04_1424,59.9498311183,duckFrog,001,11,
duck,wnR.wav,-20,landoltCL.png,V1,duckFront.png,frogFront.png,HcongWN,h,20,landoltCTop.png,,,,,3,2,242,5,,,h,0,0.561469816836,,,2020_Mar_04_1424,59.9498311183,duckFrog,001,11,
duck,wnR.wav,20,landoltCBottom.png,V1,frogFront.png,duckFront.png,HinCongWN,b,-20,landoltCL.png,,,,,3,3,243,11,,,b,0,0.550660442532,,,2020_Mar_04_1424,59.9498311183,duckFrog,001,11,
frog,wnR.wav,20,landoltCBottom.png,V1,duckFront.png,frogFront.png,LinCongWN,b,-20,landoltCR.png,,,,,3,4,244,19,,,b,0,1.41825119726,,,2020_Mar_04_1424,59.9498311183,duckFrog,001,11,
duck,wnL.wav,-20,landoltCL.png,V1,duckFront.png,frogFront.png,HinCongWN,b,20,landoltCBottom.png,,,,,3,5,245,63,,,b,0,1.2511565763,,,2020_Mar_04_1424,59.9498311183,duckFrog,001,11,
duck,wnR.wav,-20,landoltCL.png,V1,duckFront.png,frogFront.png,HcongWN,b,20,landoltCBottom.png,,,,,3,6,246,61,,,b,0,0.567573709879,,,2020_Mar_04_1424,59.9498311183,duckFrog,001,11,
duck,wnL.wav,-20,landoltCL.png,V1,duckFront.png,frogFront.png,HinCongWN,b,20,landoltCBottom.png,,,,,3,7,247,15,,,b,0,0.667670663941,,,2020_Mar_04_1424,59.9498311183,duckFrog,001,11,
frog,wnR.wav,-20,landoltCR.png,V1,frogFront.png,duckFront.png,LcongWN,b,20,landoltCBottom.png,,,,,3,8,248,21,,,b,0,1.08463634879,,,2020_Mar_04_1424,59.9498311183,duckFrog,001,11,
duck,wnL.wav,20,landoltCBottom.png,V1,frogFront.png,duckFront.png,HcongWN,b,-20,landoltCL.png,,,,,3,9,249,41,,,b,0,1.88506375329,,,2020_Mar_04_1424,59.9498311183,duckFrog,001,11,
duck,quackR.wav,-20,landoltCR.png,V1,duckFront.png,frogFront.png,Hcong,h,20,landoltCTop.png,,,,,3,10,250,68,,,h,0,0.98435245108,,,2020_Mar_04_1424,59.9498311183,duckFrog,001,11,
frog,ribbitL.wav,20,landoltCTop.png,V1,duckFront.png,frogFront.png,Lcong,h,-20,landoltCR.png,,,,,3,11,251,24,,,h,0,1.68491859702,,,2020_Mar_04_1424,59.9498311183,duckFrog,001,11,
duck,ribbitL.wav,-20,landoltCR.png,V1,duckFront.png,frogFront.png,HinCong,b,20,landoltCBottom.png,,,,,3,12,252,78,,,b,0,0.767464842676,,,2020_Mar_04_1424,59.9498311183,duckFrog,001,11,
duck,ribbitR.wav,20,landoltCTop.png,V1,frogFront.png,duckFront.png,HinCong,h,-20,landoltCL.png,,,,,3,13,253,2,,,h,0,0.684048026189,,,2020_Mar_04_1424,59.9498311183,duckFrog,001,11,
duck,wnL.wav,20,landoltCTop.png,V1,frogFront.png,duckFront.png,HcongWN,h,-20,landoltCR.png,,,,,3,14,254,1,,,h,0,0.517551258294,,,2020_Mar_04_1424,59.9498311183,duckFrog,001,11,
duck,wnR.wav,20,landoltCBottom.png,V1,frogFront.png,duckFront.png,HinCongWN,b,-20,landoltCL.png,,,,,3,15,255,75,,,b,0,0.634286929155,,,2020_Mar_04_1424,59.9498311183,duckFrog,001,11,
frog,quackR.wav,20,landoltCBottom.png,V1,duckFront.png,frogFront.png,LinCong,b,-20,landoltCL.png,,,,,3,16,256,18,,,b,0,0.934557264321,,,2020_Mar_04_1424,59.9498311183,duckFrog,001,11,
duck,ribbitL.wav,-20,landoltCR.png,V1,duckFront.png,frogFront.png,HinCong,h,20,landoltCTop.png,,,,,3,17,257,54,,,h,0,0.884289586684,,,2020_Mar_04_1424,59.9498311183,duckFrog,001,11,
duck,wnL.wav,20,landoltCTop.png,V1,frogFront.png,duckFront.png,HcongWN,h,-20,landoltCR.png,,,,,3,18,258,33,,,h,0,0.4672817479,,,2020_Mar_04_1424,59.9498311183,duckFrog,001,11,
duck,quackL.wav,20,landoltCTop.png,V1,frogFront.png,duckFront.png,Hcong,h,-20,landoltCL.png,,,,,3,19,259,32,,,h,0,0.367324818246,,,2020_Mar_04_1424,59.9498311183,duckFrog,001,11,
duck,wnR.wav,-20,landoltCL.png,V1,duckFront.png,frogFront.png,HcongWN,b,20,landoltCBottom.png,,,,,3,20,260,13,,,b,0,0.667421039223,,,2020_Mar_04_1424,59.9498311183,duckFrog,001,11,
duck,wnR.wav,-20,landoltCL.png,V1,duckFront.png,frogFront.png,HcongWN,b,20,landoltCBottom.png,,,,,3,21,261,45,,,b,0,0.51750360601,,,2020_Mar_04_1424,59.9498311183,duckFrog,001,11,
duck,wnL.wav,-20,landoltCL.png,V1,duckFront.png,frogFront.png,HinCongWN,b,20,landoltCBottom.png,,,,,3,22,262,79,,,b,0,0.500907776295,,,2020_Mar_04_1424,59.9498311183,duckFrog,001,11,
duck,wnR.wav,20,landoltCTop.png,V1,frogFront.png,duckFront.png,HinCongWN,h,-20,landoltCR.png,,,,,3,23,263,3,,,h,0,0.634104017634,,,2020_Mar_04_1424,59.9498311183,duckFrog,001,11,
duck,quackR.wav,-20,landoltCR.png,V1,duckFront.png,frogFront.png,Hcong,h,20,landoltCTop.png,,,,,3,24,264,4,,,h,0,0.46731400484,,,2020_Mar_04_1424,59.9498311183,duckFrog,001,11,
frog,quackL.wav,-20,landoltCL.png,V1,frogFront.png,duckFront.png,LinCong,b,20,landoltCBottom.png,,,,,3,25,265,22,,,b,0,1.23479680877,,,2020_Mar_04_1424,59.9498311183,duckFrog,001,11,
duck,quackL.wav,20,landoltCBottom.png,V1,frogFront.png,duckFront.png,Hcong,b,-20,landoltCR.png,,,,,3,26,266,8,,,b,0,0.650782322453,,,2020_Mar_04_1424,59.9498311183,duckFrog,001,11,
duck,wnR.wav,20,landoltCBottom.png,V1,frogFront.png,duckFront.png,HinCongWN,b,-20,landoltCL.png,,,,,3,27,267,59,,,b,0,0.534233961807,,,2020_Mar_04_1424,59.9498311183,duckFrog,001,11,
duck,wnR.wav,20,landoltCBottom.png,V1,frogFront.png,duckFront.png,HinCongWN,b,-20,landoltCL.png,,,,,3,28,268,43,,,b,0,0.433761654189,,,2020_Mar_04_1424,59.9498311183,duckFrog,001,11,
duck,quackR.wav,-20,landoltCR.png,V1,duckFront.png,frogFront.png,Hcong,h,20,landoltCTop.png,,,,,3,29,269,52,,,h,0,0.517398037831,,,2020_Mar_04_1424,59.9498311183,duckFrog,001,11,
duck,ribbitR.wav,20,landoltCBottom.png,V1,frogFront.png,duckFront.png,HinCong,b,-20,landoltCR.png,,,,,3,30,270,42,,,b,0,0.500640190323,,,2020_Mar_04_1424,59.9498311183,duckFrog,001,11,
duck,wnL.wav,-20,landoltCL.png,V1,duckFront.png,frogFront.png,HinCongWN,b,20,landoltCBottom.png,,,,,3,31,271,47,,,b,0,1.1678233346,,,2020_Mar_04_1424,59.9498311183,duckFrog,001,11,
duck,ribbitR.wav,20,landoltCBottom.png,V1,frogFront.png,duckFront.png,HinCong,b,-20,landoltCR.png,,,,,3,32,272,10,,,b,0,0.76749013504,,,2020_Mar_04_1424,59.9498311183,duckFrog,001,11,
duck,quackR.wav,-20,landoltCR.png,V1,duckFront.png,frogFront.png,Hcong,b,20,landoltCBottom.png,,,,,3,33,273,12,,,b,0,0.684131600981,,,2020_Mar_04_1424,59.9498311183,duckFrog,001,11,
frog,wnL.wav,20,landoltCBottom.png,V1,duckFront.png,frogFront.png,LcongWN,b,-20,landoltCR.png,,,,,3,34,274,17,,,b,0,1.08401173711,,,2020_Mar_04_1424,59.9498311183,duckFrog,001,11,
duck,wnR.wav,-20,landoltCL.png,V1,duckFront.png,frogFront.png,HcongWN,h,20,landoltCTop.png,,,,,3,35,275,69,,,h,0,1.43474695712,,,2020_Mar_04_1424,59.9498311183,duckFrog,001,11,
duck,ribbitL.wav,-20,landoltCR.png,V1,duckFront.png,frogFront.png,HinCong,b,20,landoltCBottom.png,,,,,3,36,276,46,,,b,0,1.06798590225,,,2020_Mar_04_1424,59.9498311183,duckFrog,001,11,
frog,wnR.wav,20,landoltCTop.png,V1,duckFront.png,frogFront.png,LinCongWN,h,-20,landoltCL.png,,,,,3,37,277,27,,,h,0,0.934284546529,,,2020_Mar_04_1424,59.9498311183,duckFrog,001,11,
duck,ribbitR.wav,20,landoltCTop.png,V1,frogFront.png,duckFront.png,HinCong,h,-20,landoltCL.png,,,,,3,38,278,66,,,h,0,0.484316345304,,,2020_Mar_04_1424,59.9498311183,duckFrog,001,11,
frog,wnR.wav,-20,landoltCR.png,V1,frogFront.png,duckFront.png,LcongWN,h,20,landoltCTop.png,,,,,3,39,279,29,,,h,0,1.06774617452,,,2020_Mar_04_1424,59.9498311183,duckFrog,001,11,
duck,ribbitR.wav,20,landoltCTop.png,V1,frogFront.png,duckFront.png,HinCong,h,-20,landoltCL.png,,,,,3,40,280,34,,,h,0,1.05100848762,,,2020_Mar_04_1424,59.9498311183,duckFrog,001,11,
duck,wnL.wav,-20,landoltCL.png,V1,duckFront.png,frogFront.png,HinCongWN,h,20,landoltCTop.png,,,,,3,41,281,71,,,h,0,0.567537420808,,,2020_Mar_04_1424,59.9498311183,duckFrog,001,11,
duck,quackL.wav,20,landoltCTop.png,V1,frogFront.png,duckFront.png,Hcong,h,-20,landoltCL.png,,,,,3,42,282,0,,,h,0,0.734136457846,,,2020_Mar_04_1424,59.9498311183,duckFrog,001,11,
duck,wnL.wav,20,landoltCTop.png,V1,frogFront.png,duckFront.png,HcongWN,h,-20,landoltCR.png,,,,,3,43,283,49,,,h,0,0.500502365205,,,2020_Mar_04_1424,59.9498311183,duckFrog,001,11,
duck,quackL.wav,20,landoltCTop.png,V1,frogFront.png,duckFront.png,Hcong,h,-20,landoltCL.png,,,,,3,44,284,64,,,h,0,0.450924912817,,,2020_Mar_04_1424,59.9498311183,duckFrog,001,11,
duck,wnL.wav,20,landoltCBottom.png,V1,frogFront.png,duckFront.png,HcongWN,b,-20,landoltCL.png,,,,,3,45,285,9,,,b,0,0.567543652258,,,2020_Mar_04_1424,59.9498311183,duckFrog,001,11,
duck,ribbitL.wav,-20,landoltCR.png,V1,duckFront.png,frogFront.png,HinCong,h,20,landoltCTop.png,,,,,3,46,286,70,,,h,0,0.967713367747,,,2020_Mar_04_1424,59.9498311183,duckFrog,001,11,
frog,quackL.wav,-20,landoltCL.png,V1,frogFront.png,duckFront.png,LinCong,h,20,landoltCTop.png,,,,,3,47,287,30,,,h,0,1.11799442468,,,2020_Mar_04_1424,59.9498311183,duckFrog,001,11,
duck,quackR.wav,-20,landoltCR.png,V1,duckFront.png,frogFront.png,Hcong,h,20,landoltCTop.png,,,,,3,48,288,36,,,h,0,1.15136239756,,,2020_Mar_04_1424,59.9498311183,duckFrog,001,11,
duck,wnL.wav,-20,landoltCL.png,V1,duckFront.png,frogFront.png,HinCongWN,h,20,landoltCTop.png,,,,,3,49,289,7,,,h,0,0.600877902005,,,2020_Mar_04_1424,59.9498311183,duckFrog,001,11,
duck,wnR.wav,-20,landoltCL.png,V1,duckFront.png,frogFront.png,HcongWN,b,20,landoltCBottom.png,,,,,3,50,290,77,,,b,0,0.600887432433,,,2020_Mar_04_1424,59.9498311183,duckFrog,001,11,
duck,wnR.wav,20,landoltCTop.png,V1,frogFront.png,duckFront.png,HinCongWN,h,-20,landoltCR.png,,,,,3,51,291,67,,,h,0,0.584029148537,,,2020_Mar_04_1424,59.9498311183,duckFrog,001,11,
duck,quackL.wav,20,landoltCBottom.png,V1,frogFront.png,duckFront.png,Hcong,b,-20,landoltCR.png,,,,,3,52,292,72,,,b,0,0.71768981652,,,2020_Mar_04_1424,59.9498311183,duckFrog,001,11,
duck,quackR.wav,-20,landoltCR.png,V1,duckFront.png,frogFront.png,Hcong,b,20,landoltCBottom.png,,,,,3,53,293,76,,,b,0,0.650745300285,,,2020_Mar_04_1424,59.9498311183,duckFrog,001,11,
duck,ribbitR.wav,20,landoltCBottom.png,V1,frogFront.png,duckFront.png,HinCong,b,-20,landoltCR.png,,,,,3,54,294,74,,,b,0,0.717491876188,,,2020_Mar_04_1424,59.9498311183,duckFrog,001,11,
frog,ribbitR.wav,-20,landoltCL.png,V1,frogFront.png,duckFront.png,Lcong,h,20,landoltCTop.png,,,,,3,55,295,28,,,h,0,0.934278681641,,,2020_Mar_04_1424,59.9498311183,duckFrog,001,11,
frog,wnL.wav,20,landoltCTop.png,V1,duckFront.png,frogFront.png,LcongWN,h,-20,landoltCL.png,,,,,3,56,296,25,,,h,0,0.917642530781,,,2020_Mar_04_1424,59.9498311183,duckFrog,001,11,
duck,ribbitL.wav,-20,landoltCR.png,V1,duckFront.png,frogFront.png,HinCong,b,20,landoltCBottom.png,,,,,3,57,297,14,,,b,0,0.684108507965,,,2020_Mar_04_1424,59.9498311183,duckFrog,001,11,
duck,wnR.wav,-20,landoltCL.png,V1,duckFront.png,frogFront.png,HcongWN,h,20,landoltCTop.png,,,,,3,58,298,37,,,h,0,0.567539253592,,,2020_Mar_04_1424,59.9498311183,duckFrog,001,11,
duck,ribbitL.wav,-20,landoltCR.png,V1,duckFront.png,frogFront.png,HinCong,b,20,landoltCBottom.png,,,,,3,59,299,62,,,b,0,0.517541727837,,,2020_Mar_04_1424,59.9498311183,duckFrog,001,11,
duck,ribbitR.wav,20,landoltCTop.png,V1,frogFront.png,duckFront.png,HinCong,h,-20,landoltCL.png,,,,,3,60,300,50,,,h,0,0.516919315502,,,2020_Mar_04_1424,59.9498311183,duckFrog,001,11,
duck,wnL.wav,-20,landoltCL.png,V1,duckFront.png,frogFront.png,HinCongWN,h,20,landoltCTop.png,,,,,3,61,301,55,,,h,0,0.967648120772,,,2020_Mar_04_1424,59.9498311183,duckFrog,001,11,
duck,quackR.wav,-20,landoltCR.png,V1,duckFront.png,frogFront.png,Hcong,b,20,landoltCBottom.png,,,,,3,62,302,44,,,b,0,0.550878909999,,,2020_Mar_04_1424,59.9498311183,duckFrog,001,11,
duck,quackL.wav,20,landoltCBottom.png,V1,frogFront.png,duckFront.png,Hcong,b,-20,landoltCR.png,,,,,3,63,303,56,,,b,0,0.634059297794,,,2020_Mar_04_1424,59.9498311183,duckFrog,001,11,
frog,ribbitL.wav,20,landoltCBottom.png,V1,duckFront.png,frogFront.png,Lcong,b,-20,landoltCL.png,,,,,3,64,304,16,,,b,0,1.20143873291,,,2020_Mar_04_1424,59.9498311183,duckFrog,001,11,
frog,wnL.wav,-20,landoltCR.png,V1,frogFront.png,duckFront.png,LinCongWN,h,20,landoltCTop.png,,,,,3,65,305,31,,,h,0,1.01770392893,,,2020_Mar_04_1424,59.9498311183,duckFrog,001,11,
duck,quackR.wav,-20,landoltCR.png,V1,duckFront.png,frogFront.png,Hcong,b,20,landoltCBottom.png,,,,,3,66,306,60,,,b,0,0.534210135636,,,2020_Mar_04_1424,59.9498311183,duckFrog,001,11,
duck,wnL.wav,-20,landoltCL.png,V1,duckFront.png,frogFront.png,HinCongWN,h,20,landoltCTop.png,,,,,3,67,307,39,,,h,0,0.634299392055,,,2020_Mar_04_1424,59.9498311183,duckFrog,001,11,
duck,wnL.wav,20,landoltCBottom.png,V1,frogFront.png,duckFront.png,HcongWN,b,-20,landoltCL.png,,,,,3,68,308,57,,,b,0,0.867602851067,,,2020_Mar_04_1424,59.9498311183,duckFrog,001,11,
duck,quackL.wav,20,landoltCTop.png,V1,frogFront.png,duckFront.png,Hcong,h,-20,landoltCL.png,,,,,3,69,309,48,,,h,0,0.534204270749,,,2020_Mar_04_1424,59.9498311183,duckFrog,001,11,
frog,quackR.wav,20,landoltCTop.png,V1,duckFront.png,frogFront.png,LinCong,h,-20,landoltCR.png,,,,,3,70,310,26,,,h,0,1.0345900711,,,2020_Mar_04_1424,59.9498311183,duckFrog,001,11,
duck,wnR.wav,20,landoltCTop.png,V1,frogFront.png,duckFront.png,HinCongWN,h,-20,landoltCR.png,,,,,3,71,311,35,,,h,0,1.28481486166,,,2020_Mar_04_1424,59.9498311183,duckFrog,001,11,
duck,quackL.wav,20,landoltCBottom.png,V1,frogFront.png,duckFront.png,Hcong,b,-20,landoltCR.png,,,,,3,72,312,40,,,b,0,0.567581040988,,,2020_Mar_04_1424,59.9498311183,duckFrog,001,11,
duck,ribbitR.wav,20,landoltCBottom.png,V1,frogFront.png,duckFront.png,HinCong,b,-20,landoltCR.png,,,,,3,73,313,58,,,b,0,0.75102553246,,,2020_Mar_04_1424,59.9498311183,duckFrog,001,11,
duck,wnL.wav,20,landoltCTop.png,V1,frogFront.png,duckFront.png,HcongWN,h,-20,landoltCR.png,,,,,3,74,314,65,,,h,0,0.701017376618,,,2020_Mar_04_1424,59.9498311183,duckFrog,001,11,
duck,wnR.wav,-20,landoltCL.png,V1,duckFront.png,frogFront.png,HcongWN,h,20,landoltCTop.png,,,,,3,75,315,53,,,h,0,0.700772517099,,,2020_Mar_04_1424,59.9498311183,duckFrog,001,11,
duck,ribbitL.wav,-20,landoltCR.png,V1,duckFront.png,frogFront.png,HinCong,h,20,landoltCTop.png,,,,,3,76,316,6,,,h,0,1.08461398887,,,2020_Mar_04_1424,59.9498311183,duckFrog,001,11,
duck,wnL.wav,20,landoltCBottom.png,V1,frogFront.png,duckFront.png,HcongWN,b,-20,landoltCL.png,,,,,3,77,317,73,,,b,0,0.633993684227,,,2020_Mar_04_1424,59.9498311183,duckFrog,001,11,
duck,ribbitL.wav,-20,landoltCR.png,V1,duckFront.png,frogFront.png,HinCong,h,20,landoltCTop.png,,,,,3,78,318,38,,,h,0,0.46731767038,,,2020_Mar_04_1424,59.9498311183,duckFrog,001,11,
frog,wnL.wav,-20,landoltCR.png,V1,frogFront.png,duckFront.png,LinCongWN,b,20,landoltCBottom.png,,,,,3,79,319,23,,,b,0,1.15138145851,,,2020_Mar_04_1424,59.9498311183,duckFrog,001,11,
frog,wnL.wav,-20,landoltCR.png,V1,frogFront.png,duckFront.png,LinCongWN,h,20,landoltCTop.png,,,,,4,0,320,31,,,h,0,0.550909334183,,,2020_Mar_04_1424,59.9498311183,duckFrog,001,11,
duck,wnL.wav,20,landoltCBottom.png,V1,frogFront.png,duckFront.png,HcongWN,b,-20,landoltCL.png,,,,,4,1,321,73,,,b,0,1.16791497363,,,2020_Mar_04_1424,59.9498311183,duckFrog,001,11,
duck,quackL.wav,20,landoltCTop.png,V1,frogFront.png,duckFront.png,Hcong,h,-20,landoltCL.png,,,,,4,2,322,0,,,h,0,0.600922621816,,,2020_Mar_04_1424,59.9498311183,duckFrog,001,11,
duck,wnL.wav,-20,landoltCL.png,V1,duckFront.png,frogFront.png,HinCongWN,b,20,landoltCBottom.png,,,,,4,3,323,15,,,b,0,0.567374303326,,,2020_Mar_04_1424,59.9498311183,duckFrog,001,11,
duck,ribbitR.wav,20,landoltCBottom.png,V1,frogFront.png,duckFront.png,HinCong,b,-20,landoltCR.png,,,,,4,4,324,10,,,b,0,0.517294669,,,2020_Mar_04_1424,59.9498311183,duckFrog,001,11,
duck,wnR.wav,20,landoltCBottom.png,V1,frogFront.png,duckFront.png,HinCongWN,b,-20,landoltCL.png,,,,,4,5,325,75,,,b,0,0.584256413364,,,2020_Mar_04_1424,59.9498311183,duckFrog,001,11,
duck,ribbitL.wav,-20,landoltCR.png,V1,duckFront.png,frogFront.png,HinCong,h,20,landoltCTop.png,,,,,4,6,326,70,,,h,0,0.56736367321,,,2020_Mar_04_1424,59.9498311183,duckFrog,001,11,
duck,quackR.wav,-20,landoltCR.png,V1,duckFront.png,frogFront.png,Hcong,b,20,landoltCBottom.png,,,,,4,7,327,60,,,b,0,0.550870112667,,,2020_Mar_04_1424,59.9498311183,duckFrog,001,11,
duck,wnL.wav,-20,landoltCL.png,V1,duckFront.png,frogFront.png,HinCongWN,b,20,landoltCBottom.png,,,,,4,8,328,79,,,b,0,0.517535129824,,,2020_Mar_04_1424,59.9498311183,duckFrog,001,11,
duck,quackR.wav,-20,landoltCR.png,V1,duckFront.png,frogFront.png,Hcong,b,20,landoltCBottom.png,,,,,4,9,329,12,,,b,0,0.584227821964,,,2020_Mar_04_1424,59.9498311183,duckFrog,001,11,
duck,ribbitR.wav,20,landoltCBottom.png,V1,frogFront.png,duckFront.png,HinCong,b,-20,landoltCR.png,,,,,4,10,330,42,,,b,0,0.617386491329,,,2020_Mar_04_1424,59.9498311183,duckFrog,001,11,
frog,wnR.wav,-20,landoltCR.png,V1,frogFront.png,duckFront.png,LcongWN,h,20,landoltCTop.png,,,,,4,11,331,29,,,h,0,0.967648487334,,,2020_Mar_04_1424,59.9498311183,duckFrog,001,11,
frog,wnR.wav,20,landoltCTop.png,V1,duckFront.png,frogFront.png,LinCongWN,h,-20,landoltCL.png,,,,,4,12,332,27,,,h,0,1.23455671448,,,2020_Mar_04_1424,59.9498311183,duckFrog,001,11,
duck,quackR.wav,-20,landoltCR.png,V1,duckFront.png,frogFront.png,Hcong,b,20,landoltCBottom.png,,,,,4,13,333,76,,,b,0,0.93434319552,,,2020_Mar_04_1424,59.9498311183,duckFrog,001,11,
frog,wnL.wav,-20,landoltCR.png,V1,frogFront.png,duckFront.png,LinCongWN,b,20,landoltCBottom.png,,,,,4,14,334,23,,,b,0,0.484166423819,,,2020_Mar_04_1424,59.9498311183,duckFrog,001,11,
frog,wnR.wav,20,landoltCBottom.png,V1,duckFront.png,frogFront.png,LinCongWN,b,-20,landoltCR.png,,,,,4,15,335,19,,,b,0,0.834178795078,,,2020_Mar_04_1424,59.9498311183,duckFrog,001,11,
duck,ribbitL.wav,-20,landoltCR.png,V1,duckFront.png,frogFront.png,HinCong,b,20,landoltCBottom.png,,,,,4,16,336,46,,,b,0,0.433914874651,,,2020_Mar_04_1424,59.9498311183,duckFrog,001,11,
duck,wnL.wav,-20,landoltCL.png,V1,duckFront.png,frogFront.png,HinCongWN,b,20,landoltCBottom.png,,,,,4,17,337,63,,,b,0,0.517510570557,,,2020_Mar_04_1424,59.9498311183,duckFrog,001,11,
duck,wnL.wav,20,landoltCBottom.png,V1,frogFront.png,duckFront.png,HcongWN,b,-20,landoltCL.png,,,,,4,18,338,57,,,b,0,0.767516527121,,,2020_Mar_04_1424,59.9498311183,duckFrog,001,11,
frog,wnR.wav,-20,landoltCR.png,V1,frogFront.png,duckFront.png,LcongWN,b,20,landoltCBottom.png,,,,,4,19,339,21,,,b,0,0.850931877387,,,2020_Mar_04_1424,59.9498311183,duckFrog,001,11,
duck,ribbitR.wav,20,landoltCBottom.png,V1,frogFront.png,duckFront.png,HinCong,b,-20,landoltCR.png,,,,,4,20,340,58,,,b,0,0.950992908969,,,2020_Mar_04_1424,59.9498311183,duckFrog,001,11,
duck,wnR.wav,-20,landoltCL.png,V1,duckFront.png,frogFront.png,HcongWN,b,20,landoltCBottom.png,,,,,4,21,341,77,,,b,0,0.717771558528,,,2020_Mar_04_1424,59.9498311183,duckFrog,001,11,
duck,wnR.wav,-20,landoltCL.png,V1,duckFront.png,frogFront.png,HcongWN,b,20,landoltCBottom.png,,,,,4,22,342,13,,,b,0,0.384096594877,,,2020_Mar_04_1424,59.9498311183,duckFrog,001,11,
duck,quackR.wav,-20,landoltCR.png,V1,duckFront.png,frogFront.png,Hcong,h,20,landoltCTop.png,,,,,4,23,343,36,,,h,0,0.717675154272,,,2020_Mar_04_1424,59.9498311183,duckFrog,001,11,
duck,wnR.wav,-20,landoltCL.png,V1,duckFront.png,frogFront.png,HcongWN,h,20,landoltCTop.png,,,,,4,24,344,5,,,h,0,2.10216249799,,,2020_Mar_04_1424,59.9498311183,duckFrog,001,11,
duck,wnL.wav,-20,landoltCL.png,V1,duckFront.png,frogFront.png,HinCongWN,h,20,landoltCTop.png,,,,,4,25,345,7,,,h,0,0.553235132946,,,2020_Mar_04_1424,59.9498311183,duckFrog,001,11,
frog,ribbitL.wav,20,landoltCTop.png,V1,duckFront.png,frogFront.png,Lcong,h,-20,landoltCR.png,,,,,4,26,346,24,,,h,0,1.18023199338,,,2020_Mar_04_1424,59.9498311183,duckFrog,001,11,
duck,wnR.wav,-20,landoltCL.png,V1,duckFront.png,frogFront.png,HcongWN,b,20,landoltCBottom.png,,,,,4,27,347,61,,,b,0,0.884267959889,,,2020_Mar_04_1424,59.9498311183,duckFrog,001,11,
duck,quackL.wav,20,landoltCTop.png,V1,frogFront.png,duckFront.png,Hcong,h,-20,landoltCL.png,,,,,4,28,348,48,,,h,0,0.500607200287,,,2020_Mar_04_1424,59.9498311183,duckFrog,001,11,
duck,wnR.wav,-20,landoltCL.png,V1,duckFront.png,frogFront.png,HcongWN,h,20,landoltCTop.png,,,,,4,29,349,69,,,h,0,0.650934809819,,,2020_Mar_04_1424,59.9498311183,duckFrog,001,11,
duck,wnR.wav,20,landoltCTop.png,V1,frogFront.png,duckFront.png,HinCongWN,h,-20,landoltCR.png,,,,,4,30,350,3,,,h,0,0.433861724014,,,2020_Mar_04_1424,59.9498311183,duckFrog,001,11,
duck,ribbitL.wav,-20,landoltCR.png,V1,duckFront.png,frogFront.png,HinCong,b,20,landoltCBottom.png,,,,,4,31,351,62,,,b,0,0.550884774915,,,2020_Mar_04_1424,59.9498311183,duckFrog,001,11,
duck,wnL.wav,-20,landoltCL.png,V1,duckFront.png,frogFront.png,HinCongWN,h,20,landoltCTop.png,,,,,4,32,352,39,,,h,0,0.450843903905,,,2020_Mar_04_1424,59.9498311183,duckFrog,001,11,
frog,wnL.wav,20,landoltCTop.png,V1,duckFront.png,frogFront.png,LcongWN,h,-20,landoltCL.png,,,,,4,33,353,25,,,h,0,1.06773920998,,,2020_Mar_04_1424,59.9498311183,duckFrog,001,11,
duck,ribbitR.wav,20,landoltCBottom.png,V1,frogFront.png,duckFront.png,HinCong,b,-20,landoltCR.png,,,,,4,34,354,74,,,b,0,1.10133078208,,,2020_Mar_04_1424,59.9498311183,duckFrog,001,11,
duck,ribbitL.wav,-20,landoltCR.png,V1,duckFront.png,frogFront.png,HinCong,h,20,landoltCTop.png,,,,,4,35,355,6,,,h,0,0.500250174577,,,2020_Mar_04_1424,59.9498311183,duckFrog,001,11,
duck,wnL.wav,-20,landoltCL.png,V1,duckFront.png,frogFront.png,HinCongWN,b,20,landoltCBottom.png,,,,,4,36,356,47,,,b,0,0.550914465945,,,2020_Mar_04_1424,59.9498311183,duckFrog,001,11,
duck,ribbitL.wav,-20,landoltCR.png,V1,duckFront.png,frogFront.png,HinCong,h,20,landoltCTop.png,,,,,4,37,357,54,,,h,0,0.500471574487,,,2020_Mar_04_1424,59.9498311183,duckFrog,001,11,
duck,wnL.wav,-20,landoltCL.png,V1,duckFront.png,frogFront.png,HinCongWN,h,20,landoltCTop.png,,,,,4,38,358,55,,,h,0,1.11801898392,,,2020_Mar_04_1424,59.9498311183,duckFrog,001,11,
duck,quackL.wav,20,landoltCTop.png,V1,frogFront.png,duckFront.png,Hcong,h,-20,landoltCL.png,,,,,4,39,359,64,,,h,0,0.767491234699,,,2020_Mar_04_1424,59.9498311183,duckFrog,001,11,
frog,ribbitL.wav,20,landoltCBottom.png,V1,duckFront.png,frogFront.png,Lcong,b,-20,landoltCL.png,,,,,4,40,360,16,,,b,0,1.0512122928,,,2020_Mar_04_1424,59.9498311183,duckFrog,001,11,
duck,ribbitL.wav,-20,landoltCR.png,V1,duckFront.png,frogFront.png,HinCong,b,20,landoltCBottom.png,,,,,4,41,361,14,,,b,0,1.20117151344,,,2020_Mar_04_1424,59.9498311183,duckFrog,001,11,
duck,wnR.wav,-20,landoltCL.png,V1,duckFront.png,frogFront.png,HcongWN,h,20,landoltCTop.png,,,,,4,42,362,37,,,h,0,0.534230296209,,,2020_Mar_04_1424,59.9498311183,duckFrog,001,11,
duck,wnL.wav,-20,landoltCL.png,V1,duckFront.png,frogFront.png,HinCongWN,h,20,landoltCTop.png,,,,,4,43,363,71,,,h,0,0.600913824484,,,2020_Mar_04_1424,59.9498311183,duckFrog,001,11,
duck,wnR.wav,20,landoltCTop.png,V1,frogFront.png,duckFront.png,HinCongWN,h,-20,landoltCR.png,,,,,4,44,364,35,,,h,0,0.884290319809,,,2020_Mar_04_1424,59.9498311183,duckFrog,001,11,
duck,quackR.wav,-20,landoltCR.png,V1,duckFront.png,frogFront.png,Hcong,b,20,landoltCBottom.png,,,,,4,45,365,44,,,b,0,0.98430516533,,,2020_Mar_04_1424,59.9498311183,duckFrog,001,11,
duck,ribbitR.wav,20,landoltCTop.png,V1,frogFront.png,duckFront.png,HinCong,h,-20,landoltCL.png,,,,,4,46,366,2,,,h,0,0.934307273012,,,2020_Mar_04_1424,59.9498311183,duckFrog,001,11,
frog,ribbitR.wav,-20,landoltCL.png,V1,frogFront.png,duckFront.png,Lcong,h,20,landoltCTop.png,,,,,4,47,367,28,,,h,0,1.0343708705,,,2020_Mar_04_1424,59.9498311183,duckFrog,001,11,
duck,quackL.wav,20,landoltCBottom.png,V1,frogFront.png,duckFront.png,Hcong,b,-20,landoltCR.png,,,,,4,48,368,8,,,b,0,0.917656459904,,,2020_Mar_04_1424,59.9498311183,duckFrog,001,11,
duck,quackR.wav,-20,landoltCR.png,V1,duckFront.png,frogFront.png,Hcong,h,20,landoltCTop.png,,,,,4,49,369,68,,,h,0,1.10108665572,,,2020_Mar_04_1424,59.9498311183,duckFrog,001,11,
duck,ribbitR.wav,20,landoltCTop.png,V1,frogFront.png,duckFront.png,HinCong,h,-20,landoltCL.png,,,,,4,50,370,50,,,h,0,0.667448897468,,,2020_Mar_04_1424,59.9498311183,duckFrog,001,11,
frog,wnL.wav,20,landoltCBottom.png,V1,duckFront.png,frogFront.png,LcongWN,b,-20,landoltCR.png,,,,,4,51,371,17,,,b,0,1.26809843499,,,2020_Mar_04_1424,59.9498311183,duckFrog,001,11,
duck,wnR.wav,20,landoltCTop.png,V1,frogFront.png,duckFront.png,HinCongWN,h,-20,landoltCR.png,,,,,4,52,372,67,,,h,0,0.734375819011,,,2020_Mar_04_1424,59.9498311183,duckFrog,001,11,
duck,wnL.wav,20,landoltCTop.png,V1,frogFront.png,duckFront.png,HcongWN,h,-20,landoltCR.png,,,,,4,53,373,49,,,h,0,0.450843903905,,,2020_Mar_04_1424,59.9498311183,duckFrog,001,11,
duck,quackL.wav,20,landoltCBottom.png,V1,frogFront.png,duckFront.png,Hcong,b,-20,landoltCR.png,,,,,4,54,374,56,,,b,0,0.450832540664,,,2020_Mar_04_1424,59.9498311183,duckFrog,001,11,
duck,quackL.wav,20,landoltCTop.png,V1,frogFront.png,duckFront.png,Hcong,h,-20,landoltCL.png,,,,,4,55,375,32,,,h,0,0.801093803544,,,2020_Mar_04_1424,59.9498311183,duckFrog,001,11,
duck,ribbitR.wav,20,landoltCTop.png,V1,frogFront.png,duckFront.png,HinCong,h,-20,landoltCL.png,,,,,4,56,376,66,,,h,0,0.768392229744,,,2020_Mar_04_1424,59.9498311183,duckFrog,001,11,
frog,quackR.wav,20,landoltCTop.png,V1,duckFront.png,frogFront.png,LinCong,h,-20,landoltCR.png,,,,,4,57,377,26,,,h,0,0.600953412533,,,2020_Mar_04_1424,59.9498311183,duckFrog,001,11,
duck,wnR.wav,-20,landoltCL.png,V1,duckFront.png,frogFront.png,HcongWN,b,20,landoltCBottom.png,,,,,4,58,378,45,,,b,0,1.41803639536,,,2020_Mar_04_1424,59.9498311183,duckFrog,001,11,
duck,quackR.wav,-20,landoltCR.png,V1,duckFront.png,frogFront.png,Hcong,h,20,landoltCTop.png,,,,,4,59,379,52,,,h,0,0.827593613853,,,2020_Mar_04_1424,59.9498311183,duckFrog,001,11,
duck,wnL.wav,20,landoltCBottom.png,V1,frogFront.png,duckFront.png,HcongWN,b,-20,landoltCL.png,,,,,4,60,380,41,,,b,0,0.500655219104,,,2020_Mar_04_1424,59.9498311183,duckFrog,001,11,
duck,wnL.wav,20,landoltCTop.png,V1,frogFront.png,duckFront.png,HcongWN,h,-20,landoltCR.png,,,,,4,61,381,1,,,h,0,0.550895038497,,,2020_Mar_04_1424,59.9498311183,duckFrog,001,11,
duck,wnL.wav,20,landoltCBottom.png,V1,frogFront.png,duckFront.png,HcongWN,b,-20,landoltCL.png,,,,,4,62,382,9,,,b,0,0.784391306021,,,2020_Mar_04_1424,59.9498311183,duckFrog,001,11,
duck,wnR.wav,20,landoltCBottom.png,V1,frogFront.png,duckFront.png,HinCongWN,b,-20,landoltCL.png,,,,,4,63,383,11,,,b,0,0.517570319207,,,2020_Mar_04_1424,59.9498311183,duckFrog,001,11,
duck,wnR.wav,20,landoltCBottom.png,V1,frogFront.png,duckFront.png,HinCongWN,b,-20,landoltCL.png,,,,,4,64,384,59,,,b,0,0.517521200702,,,2020_Mar_04_1424,59.9498311183,duckFrog,001,11,
duck,wnR.wav,-20,landoltCL.png,V1,duckFront.png,frogFront.png,HcongWN,h,20,landoltCTop.png,,,,,4,65,385,53,,,h,0,0.517314829573,,,2020_Mar_04_1424,59.9498311183,duckFrog,001,11,
frog,quackL.wav,-20,landoltCL.png,V1,frogFront.png,duckFront.png,LinCong,b,20,landoltCBottom.png,,,,,4,66,386,22,,,b,0,1.15134150386,,,2020_Mar_04_1424,59.9498311183,duckFrog,001,11,
duck,wnL.wav,20,landoltCTop.png,V1,frogFront.png,duckFront.png,HcongWN,h,-20,landoltCR.png,,,,,4,67,387,65,,,h,0,0.850853800919,,,2020_Mar_04_1424,59.9498311183,duckFrog,001,11,
frog,ribbitR.wav,-20,landoltCL.png,V1,frogFront.png,duckFront.png,Lcong,b,20,landoltCBottom.png,,,,,4,68,388,20,,,b,0,0.984319094452,,,2020_Mar_04_1424,59.9498311183,duckFrog,001,11,
duck,quackR.wav,-20,landoltCR.png,V1,duckFront.png,frogFront.png,Hcong,h,20,landoltCTop.png,,,,,4,69,389,4,,,h,0,0.584279872943,,,2020_Mar_04_1424,59.9498311183,duckFrog,001,11,
duck,ribbitL.wav,-20,landoltCR.png,V1,duckFront.png,frogFront.png,HinCong,h,20,landoltCTop.png,,,,,4,70,390,38,,,h,0,0.834459943668,,,2020_Mar_04_1424,59.9498311183,duckFrog,001,11,
duck,ribbitR.wav,20,landoltCTop.png,V1,frogFront.png,duckFront.png,HinCong,h,-20,landoltCL.png,,,,,4,71,391,34,,,h,0,0.533990201977,,,2020_Mar_04_1424,59.9498311183,duckFrog,001,11,
duck,wnL.wav,20,landoltCTop.png,V1,frogFront.png,duckFront.png,HcongWN,h,-20,landoltCR.png,,,,,4,72,392,33,,,h,0,0.417530181323,,,2020_Mar_04_1424,59.9498311183,duckFrog,001,11,
duck,quackL.wav,20,landoltCBottom.png,V1,frogFront.png,duckFront.png,Hcong,b,-20,landoltCR.png,,,,,4,73,393,40,,,b,0,0.633895447187,,,2020_Mar_04_1424,59.9498311183,duckFrog,001,11,
duck,quackL.wav,20,landoltCBottom.png,V1,frogFront.png,duckFront.png,Hcong,b,-20,landoltCR.png,,,,,4,74,394,72,,,b,0,0.567600101902,,,2020_Mar_04_1424,59.9498311183,duckFrog,001,11,
frog,quackL.wav,-20,landoltCL.png,V1,frogFront.png,duckFront.png,LinCong,h,20,landoltCTop.png,,,,,4,75,395,30,,,h,0,1.18452033377,,,2020_Mar_04_1424,59.9498311183,duckFrog,001,11,
duck,wnR.wav,20,landoltCTop.png,V1,frogFront.png,duckFront.png,HinCongWN,h,-20,landoltCR.png,,,,,4,76,396,51,,,h,0,0.934954611206,,,2020_Mar_04_1424,59.9498311183,duckFrog,001,11,
frog,quackR.wav,20,landoltCBottom.png,V1,duckFront.png,frogFront.png,LinCong,b,-20,landoltCL.png,,,,,4,77,397,18,,,b,0,1.41825193039,,,2020_Mar_04_1424,59.9498311183,duckFrog,001,11,
duck,wnR.wav,20,landoltCBottom.png,V1,frogFront.png,duckFront.png,HinCongWN,b,-20,landoltCL.png,,,,,4,78,398,43,,,b,0,0.550859482522,,,2020_Mar_04_1424,59.9498311183,duckFrog,001,11,
duck,ribbitL.wav,-20,landoltCR.png,V1,duckFront.png,frogFront.png,HinCong,b,20,landoltCBottom.png,,,,,4,79,399,78,,,h,0,0.767368804954,,,2020_Mar_04_1424,59.9498311183,duckFrog,001,11,
frog,quackL.wav,-20,landoltCL.png,V1,frogFront.png,duckFront.png,LinCong,b,20,landoltCBottom.png,,,,,5,0,400,22,,,b,0,1.40157912389,,,2020_Mar_04_1424,59.9498311183,duckFrog,001,11,
duck,wnL.wav,20,landoltCBottom.png,V1,frogFront.png,duckFront.png,HcongWN,b,-20,landoltCL.png,,,,,5,1,401,73,,,b,0,0.950939758302,,,2020_Mar_04_1424,59.9498311183,duckFrog,001,11,
duck,wnL.wav,20,landoltCBottom.png,V1,frogFront.png,duckFront.png,HcongWN,b,-20,landoltCL.png,,,,,5,2,402,41,,,b,0,0.617619621014,,,2020_Mar_04_1424,59.9498311183,duckFrog,001,11,
duck,wnR.wav,20,landoltCBottom.png,V1,frogFront.png,duckFront.png,HinCongWN,b,-20,landoltCL.png,,,,,5,3,403,59,,,b,0,1.03461536349,,,2020_Mar_04_1424,59.9498311183,duckFrog,001,11,
duck,ribbitL.wav,-20,landoltCR.png,V1,duckFront.png,frogFront.png,HinCong,h,20,landoltCTop.png,,,,,5,4,404,38,,,h,0,1.05107703363,,,2020_Mar_04_1424,59.9498311183,duckFrog,001,11,
frog,wnR.wav,-20,landoltCR.png,V1,frogFront.png,duckFront.png,LcongWN,h,20,landoltCTop.png,,,,,5,5,405,29,,,h,0,1.2514164646,,,2020_Mar_04_1424,59.9498311183,duckFrog,001,11,
duck,ribbitR.wav,20,landoltCTop.png,V1,frogFront.png,duckFront.png,HinCong,h,-20,landoltCL.png,,,,,5,6,406,34,,,h,0,1.06773811029,,,2020_Mar_04_1424,59.9498311183,duckFrog,001,11,
duck,wnL.wav,-20,landoltCL.png,V1,duckFront.png,frogFront.png,HinCongWN,h,20,landoltCTop.png,,,,,5,7,407,71,,,h,0,0.967653619096,,,2020_Mar_04_1424,59.9498311183,duckFrog,001,11,
duck,wnL.wav,20,landoltCBottom.png,V1,frogFront.png,duckFront.png,HcongWN,b,-20,landoltCL.png,,,,,5,8,408,57,,,b,0,1.06772894639,,,2020_Mar_04_1424,59.9498311183,duckFrog,001,11,
duck,ribbitR.wav,20,landoltCTop.png,V1,frogFront.png,duckFront.png,HinCong,h,-20,landoltCL.png,,,,,5,9,409,50,,,h,0,1.58505330642,,,2020_Mar_04_1424,59.9498311183,duckFrog,001,11,
duck,wnR.wav,20,landoltCTop.png,V1,frogFront.png,duckFront.png,HinCongWN,h,-20,landoltCR.png,,,,,5,10,410,51,,,h,0,0.634341179451,,,2020_Mar_04_1424,59.9498311183,duckFrog,001,11,
duck,wnR.wav,-20,landoltCL.png,V1,duckFront.png,frogFront.png,HcongWN,h,20,landoltCTop.png,,,,,5,11,411,5,,,h,0,0.867581590806,,,2020_Mar_04_1424,59.9498311183,duckFrog,001,11,
duck,wnR.wav,-20,landoltCL.png,V1,duckFront.png,frogFront.png,HcongWN,h,20,landoltCTop.png,,,,,5,12,412,69,,,h,0,0.46751414449,,,2020_Mar_04_1424,59.9498311183,duckFrog,001,11,
duck,quackL.wav,20,landoltCTop.png,V1,frogFront.png,duckFront.png,Hcong,h,-20,landoltCL.png,,,,,5,13,413,0,,,h,0,0.550665940886,,,2020_Mar_04_1424,59.9498311183,duckFrog,001,11,
duck,ribbitR.wav,20,landoltCBottom.png,V1,frogFront.png,duckFront.png,HinCong,b,-20,landoltCR.png,,,,,5,14,414,74,,,b,0,0.684317811509,,,2020_Mar_04_1424,59.9498311183,duckFrog,001,11,
duck,ribbitL.wav,-20,landoltCR.png,V1,duckFront.png,frogFront.png,HinCong,h,20,landoltCTop.png,,,,,5,15,415,70,,,h,0,0.483950888796,,,2020_Mar_04_1424,59.9498311183,duckFrog,001,11,
duck,ribbitR.wav,20,landoltCBottom.png,V1,frogFront.png,duckFront.png,HinCong,b,-20,landoltCR.png,,,,,5,16,416,58,,,b,0,0.500556615501,,,2020_Mar_04_1424,59.9498311183,duckFrog,001,11,
frog,wnL.wav,20,landoltCBottom.png,V1,duckFront.png,frogFront.png,LcongWN,b,-20,landoltCR.png,,,,,5,17,417,17,,,b,0,0.650982828665,,,2020_Mar_04_1424,59.9498311183,duckFrog,001,11,
frog,ribbitL.wav,20,landoltCBottom.png,V1,duckFront.png,frogFront.png,Lcong,b,-20,landoltCL.png,,,,,5,18,418,16,,,b,0,0.617615222349,,,2020_Mar_04_1424,59.9498311183,duckFrog,001,11,
duck,wnL.wav,20,landoltCTop.png,V1,frogFront.png,duckFront.png,HcongWN,h,-20,landoltCR.png,,,,,5,19,419,65,,,h,0,0.484147729439,,,2020_Mar_04_1424,59.9498311183,duckFrog,001,11,
duck,wnL.wav,20,landoltCTop.png,V1,frogFront.png,duckFront.png,HcongWN,h,-20,landoltCR.png,,,,,5,20,420,33,,,h,0,0.717720240675,,,2020_Mar_04_1424,59.9498311183,duckFrog,001,11,
frog,quackL.wav,-20,landoltCL.png,V1,frogFront.png,duckFront.png,LinCong,h,20,landoltCTop.png,,,,,5,21,421,30,,,h,0,1.25127204147,,,2020_Mar_04_1424,59.9498311183,duckFrog,001,11,
frog,quackR.wav,20,landoltCBottom.png,V1,duckFront.png,frogFront.png,LinCong,b,-20,landoltCL.png,,,,,5,22,422,18,,,b,0,0.867581224273,,,2020_Mar_04_1424,59.9498311183,duckFrog,001,11,
duck,quackR.wav,-20,landoltCR.png,V1,duckFront.png,frogFront.png,Hcong,b,20,landoltCBottom.png,,,,,5,23,423,44,,,b,0,0.901165465271,,,2020_Mar_04_1424,59.9498311183,duckFrog,001,11,
duck,wnR.wav,20,landoltCBottom.png,V1,frogFront.png,duckFront.png,HinCongWN,b,-20,landoltCL.png,,,,,5,24,424,11,,,b,0,0.534111898596,,,2020_Mar_04_1424,59.9498311183,duckFrog,001,11,
frog,wnL.wav,-20,landoltCR.png,V1,frogFront.png,duckFront.png,LinCongWN,h,20,landoltCTop.png,,,,,5,25,425,31,,,h,0,1.13443446803,,,2020_Mar_04_1424,59.9498311183,duckFrog,001,11,
duck,ribbitR.wav,20,landoltCBottom.png,V1,frogFront.png,duckFront.png,HinCong,b,-20,landoltCR.png,,,,,5,26,426,10,,,b,0,0.884276390658,,,2020_Mar_04_1424,59.9498311183,duckFrog,001,11,
duck,wnL.wav,-20,landoltCL.png,V1,duckFront.png,frogFront.png,HinCongWN,h,20,landoltCTop.png,,,,,5,27,427,7,,,h,0,1.06776083677,,,2020_Mar_04_1424,59.9498311183,duckFrog,001,11,
duck,ribbitR.wav,20,landoltCTop.png,V1,frogFront.png,duckFront.png,HinCong,h,-20,landoltCL.png,,,,,5,28,428,2,,,h,0,0.567316020868,,,2020_Mar_04_1424,59.9498311183,duckFrog,001,11,
duck,quackL.wav,20,landoltCTop.png,V1,frogFront.png,duckFront.png,Hcong,h,-20,landoltCL.png,,,,,5,29,429,32,,,h,0,0.567559780728,,,2020_Mar_04_1424,59.9498311183,duckFrog,001,11,
frog,wnR.wav,20,landoltCBottom.png,V1,duckFront.png,frogFront.png,LinCongWN,b,-20,landoltCR.png,,,,,5,30,430,19,,,b,0,0.584279872943,,,2020_Mar_04_1424,59.9498311183,duckFrog,001,11,
duck,ribbitL.wav,-20,landoltCR.png,V1,duckFront.png,frogFront.png,HinCong,b,20,landoltCBottom.png,,,,,5,31,431,14,,,b,0,0.967623928067,,,2020_Mar_04_1424,59.9498311183,duckFrog,001,11,
duck,quackL.wav,20,landoltCBottom.png,V1,frogFront.png,duckFront.png,Hcong,b,-20,landoltCR.png,,,,,5,32,432,8,,,b,0,0.634031806054,,,2020_Mar_04_1424,59.9498311183,duckFrog,001,11,
duck,wnR.wav,20,landoltCTop.png,V1,frogFront.png,duckFront.png,HinCongWN,h,-20,landoltCR.png,,,,,5,33,433,67,,,h,0,0.600940216536,,,2020_Mar_04_1424,59.9498311183,duckFrog,001,11,
duck,wnR.wav,-20,landoltCL.png,V1,duckFront.png,frogFront.png,HcongWN,b,20,landoltCBottom.png,,,,,5,34,434,13,,,b,0,1.00104981681,,,2020_Mar_04_1424,59.9498311183,duckFrog,001,11,
duck,wnR.wav,20,landoltCTop.png,V1,frogFront.png,duckFront.png,HinCongWN,h,-20,landoltCR.png,,,,,5,35,435,3,,,h,0,0.550679503445,,,2020_Mar_04_1424,59.9498311183,duckFrog,001,11,
duck,wnR.wav,-20,landoltCL.png,V1,duckFront.png,frogFront.png,HcongWN,b,20,landoltCBottom.png,,,,,5,36,436,77,,,b,0,0.867577925266,,,2020_Mar_04_1424,59.9498311183,duckFrog,001,11,
duck,quackR.wav,-20,landoltCR.png,V1,duckFront.png,frogFront.png,Hcong,b,20,landoltCBottom.png,,,,,5,37,437,76,,,b,0,0.917841204209,,,2020_Mar_04_1424,59.9498311183,duckFrog,001,11,
duck,quackL.wav,20,landoltCBottom.png,V1,frogFront.png,duckFront.png,Hcong,b,-20,landoltCR.png,,,,,5,38,438,56,,,b,0,0.550654211082,,,2020_Mar_04_1424,59.9498311183,duckFrog,001,11,
duck,quackL.wav,20,landoltCTop.png,V1,frogFront.png,duckFront.png,Hcong,h,-20,landoltCL.png,,,,,5,39,439,64,,,h,0,0.667665898742,,,2020_Mar_04_1424,59.9498311183,duckFrog,001,11,
duck,quackR.wav,-20,landoltCR.png,V1,duckFront.png,frogFront.png,Hcong,h,20,landoltCTop.png,,,,,5,40,440,36,,,h,0,1.15288140625,,,2020_Mar_04_1424,59.9498311183,duckFrog,001,11,
duck,quackL.wav,20,landoltCBottom.png,V1,frogFront.png,duckFront.png,Hcong,b,-20,landoltCR.png,,,,,5,41,441,72,,,b,0,0.767524591327,,,2020_Mar_04_1424,59.9498311183,duckFrog,001,11,
duck,quackR.wav,-20,landoltCR.png,V1,duckFront.png,frogFront.png,Hcong,h,20,landoltCTop.png,,,,,5,42,442,68,,,h,0,0.900999048783,,,2020_Mar_04_1424,59.9498311183,duckFrog,001,11,
frog,wnR.wav,-20,landoltCR.png,V1,frogFront.png,duckFront.png,LcongWN,b,20,landoltCBottom.png,,,,,5,43,443,21,,,b,0,0.934126927401,,,2020_Mar_04_1424,59.9498311183,duckFrog,001,11,
duck,quackL.wav,20,landoltCTop.png,V1,frogFront.png,duckFront.png,Hcong,h,-20,landoltCL.png,,,,,5,44,444,48,,,h,0,0.600957078103,,,2020_Mar_04_1424,59.9498311183,duckFrog,001,11,
duck,ribbitL.wav,-20,landoltCR.png,V1,duckFront.png,frogFront.png,HinCong,h,20,landoltCTop.png,,,,,5,45,445,6,,,h,0,0.950965417287,,,2020_Mar_04_1424,59.9498311183,duckFrog,001,11,
frog,ribbitR.wav,-20,landoltCL.png,V1,frogFront.png,duckFront.png,Lcong,h,20,landoltCTop.png,,,,,5,46,446,28,,,h,0,1.184730737,,,2020_Mar_04_1424,59.9498311183,duckFrog,001,11,
duck,quackR.wav,-20,landoltCR.png,V1,duckFront.png,frogFront.png,Hcong,b,20,landoltCBottom.png,,,,,5,47,447,12,,,b,0,1.16806306233,,,2020_Mar_04_1424,59.9498311183,duckFrog,001,11,
duck,wnR.wav,20,landoltCBottom.png,V1,frogFront.png,duckFront.png,HinCongWN,b,-20,landoltCL.png,,,,,5,48,448,43,,,b,0,0.85090365255,,,2020_Mar_04_1424,59.9498311183,duckFrog,001,11,
frog,wnR.wav,20,landoltCTop.png,V1,duckFront.png,frogFront.png,LinCongWN,h,-20,landoltCL.png,,,,,5,49,449,27,,,h,0,1.0846565094,,,2020_Mar_04_1424,59.9498311183,duckFrog,001,11,
duck,wnL.wav,-20,landoltCL.png,V1,duckFront.png,frogFront.png,HinCongWN,h,20,landoltCTop.png,,,,,5,50,450,39,,,h,0,0.517319594801,,,2020_Mar_04_1424,59.9498311183,duckFrog,001,11,
duck,wnL.wav,-20,landoltCL.png,V1,duckFront.png,frogFront.png,HinCongWN,b,20,landoltCBottom.png,,,,,5,51,451,47,,,b,0,0.534242392576,,,2020_Mar_04_1424,59.9498311183,duckFrog,001,11,
duck,ribbitL.wav,-20,landoltCR.png,V1,duckFront.png,frogFront.png,HinCong,h,20,landoltCTop.png,,,,,5,52,452,54,,,h,0,0.484145896684,,,2020_Mar_04_1424,59.9498311183,duckFrog,001,11,
duck,wnL.wav,-20,landoltCL.png,V1,duckFront.png,frogFront.png,HinCongWN,b,20,landoltCBottom.png,,,,,5,53,453,15,,,b,0,0.567551716493,,,2020_Mar_04_1424,59.9498311183,duckFrog,001,11,
frog,wnL.wav,-20,landoltCR.png,V1,frogFront.png,duckFront.png,LinCongWN,b,20,landoltCBottom.png,,,,,5,54,454,23,,,b,0,0.984535729163,,,2020_Mar_04_1424,59.9498311183,duckFrog,001,11,
duck,wnR.wav,-20,landoltCL.png,V1,duckFront.png,frogFront.png,HcongWN,b,20,landoltCBottom.png,,,,,5,55,455,45,,,b,0,0.817773208051,,,2020_Mar_04_1424,59.9498311183,duckFrog,001,11,
duck,wnL.wav,-20,landoltCL.png,V1,duckFront.png,frogFront.png,HinCongWN,b,20,landoltCBottom.png,,,,,5,56,456,63,,,b,0,0.717689083423,,,2020_Mar_04_1424,59.9498311183,duckFrog,001,11,
duck,ribbitL.wav,-20,landoltCR.png,V1,duckFront.png,frogFront.png,HinCong,b,20,landoltCBottom.png,,,,,5,57,457,46,,,b,0,0.90116656496,,,2020_Mar_04_1424,59.9498311183,duckFrog,001,11,
frog,ribbitL.wav,20,landoltCTop.png,V1,duckFront.png,frogFront.png,Lcong,h,-20,landoltCR.png,,,,,5,58,458,24,,,h,0,1.51809156206,,,2020_Mar_04_1424,59.9498311183,duckFrog,001,11,
duck,wnL.wav,20,landoltCTop.png,V1,frogFront.png,duckFront.png,HcongWN,h,-20,landoltCR.png,,,,,5,59,459,1,,,h,0,0.867801524524,,,2020_Mar_04_1424,59.9498311183,duckFrog,001,11,
duck,quackL.wav,20,landoltCBottom.png,V1,frogFront.png,duckFront.png,Hcong,b,-20,landoltCR.png,,,,,5,60,460,40,,,b,0,1.56833834597,,,2020_Mar_04_1424,59.9498311183,duckFrog,001,11,
frog,wnL.wav,20,landoltCTop.png,V1,duckFront.png,frogFront.png,LcongWN,h,-20,landoltCL.png,,,,,5,61,461,25,,,h,0,0.684308647615,,,2020_Mar_04_1424,59.9498311183,duckFrog,001,11,
duck,wnR.wav,-20,landoltCL.png,V1,duckFront.png,frogFront.png,HcongWN,b,20,landoltCBottom.png,,,,,5,62,462,61,,,b,0,1.40139987794,,,2020_Mar_04_1424,59.9498311183,duckFrog,001,11,
frog,quackR.wav,20,landoltCTop.png,V1,duckFront.png,frogFront.png,LinCong,h,-20,landoltCR.png,,,,,5,63,463,26,,,h,0,0.967704570416,,,2020_Mar_04_1424,59.9498311183,duckFrog,001,11,
duck,wnR.wav,20,landoltCBottom.png,V1,frogFront.png,duckFront.png,HinCongWN,b,-20,landoltCL.png,,,,,5,64,464,75,,,b,0,0.667598085856,,,2020_Mar_04_1424,59.9498311183,duckFrog,001,11,
duck,wnR.wav,20,landoltCTop.png,V1,frogFront.png,duckFront.png,HinCongWN,h,-20,landoltCR.png,,,,,5,65,465,35,,,h,0,1.18472303933,,,2020_Mar_04_1424,59.9498311183,duckFrog,001,11,
frog,ribbitR.wav,-20,landoltCL.png,V1,frogFront.png,duckFront.png,Lcong,b,20,landoltCBottom.png,,,,,5,66,466,20,,,b,0,1.25127240806,,,2020_Mar_04_1424,59.9498311183,duckFrog,001,11,
duck,quackR.wav,-20,landoltCR.png,V1,duckFront.png,frogFront.png,Hcong,b,20,landoltCBottom.png,,,,,5,67,467,60,,,b,0,0.717686884076,,,2020_Mar_04_1424,59.9498311183,duckFrog,001,11,
duck,wnL.wav,-20,landoltCL.png,V1,duckFront.png,frogFront.png,HinCongWN,b,20,landoltCBottom.png,,,,,5,68,468,79,,,b,0,0.517546126532,,,2020_Mar_04_1424,59.9498311183,duckFrog,001,11,
duck,wnL.wav,20,landoltCBottom.png,V1,frogFront.png,duckFront.png,HcongWN,b,-20,landoltCL.png,,,,,5,69,469,9,,,b,0,0.517310430907,,,2020_Mar_04_1424,59.9498311183,duckFrog,001,11,
duck,wnR.wav,-20,landoltCL.png,V1,duckFront.png,frogFront.png,HcongWN,h,20,landoltCTop.png,,,,,5,70,470,53,,,h,0,0.574817592482,,,2020_Mar_04_1424,59.9498311183,duckFrog,001,11,
duck,quackR.wav,-20,landoltCR.png,V1,duckFront.png,frogFront.png,Hcong,h,20,landoltCTop.png,,,,,5,71,471,52,,,h,0,0.384094762121,,,2020_Mar_04_1424,59.9498311183,duckFrog,001,11,
duck,quackR.wav,-20,landoltCR.png,V1,duckFront.png,frogFront.png,Hcong,h,20,landoltCTop.png,,,,,5,72,472,4,,,h,0,0.367971056723,,,2020_Mar_04_1424,59.9498311183,duckFrog,001,11,
duck,ribbitL.wav,-20,landoltCR.png,V1,duckFront.png,frogFront.png,HinCong,b,20,landoltCBottom.png,,,,,5,73,473,78,,,b,0,0.634285829496,,,2020_Mar_04_1424,59.9498311183,duckFrog,001,11,
duck,ribbitR.wav,20,landoltCBottom.png,V1,frogFront.png,duckFront.png,HinCong,b,-20,landoltCR.png,,,,,5,74,474,42,,,b,0,1.00104725093,,,2020_Mar_04_1424,59.9498311183,duckFrog,001,11,
duck,wnL.wav,20,landoltCTop.png,V1,frogFront.png,duckFront.png,HcongWN,h,-20,landoltCR.png,,,,,5,75,475,49,,,h,0,1.00126645149,,,2020_Mar_04_1424,59.9498311183,duckFrog,001,11,
duck,wnR.wav,-20,landoltCL.png,V1,duckFront.png,frogFront.png,HcongWN,h,20,landoltCTop.png,,,,,5,76,476,37,,,h,0,0.667465759092,,,2020_Mar_04_1424,59.9498311183,duckFrog,001,11,
duck,wnL.wav,-20,landoltCL.png,V1,duckFront.png,frogFront.png,HinCongWN,h,20,landoltCTop.png,,,,,5,77,477,55,,,h,0,0.517514602689,,,2020_Mar_04_1424,59.9498311183,duckFrog,001,11,
duck,ribbitL.wav,-20,landoltCR.png,V1,duckFront.png,frogFront.png,HinCong,b,20,landoltCBottom.png,,,,,5,78,478,62,,,b,0,0.567560513824,,,2020_Mar_04_1424,59.9498311183,duckFrog,001,11,
duck,ribbitR.wav,20,landoltCTop.png,V1,frogFront.png,duckFront.png,HinCong,h,-20,landoltCL.png,,,,,5,79,479,66,,,h,0,0.867588555382,,,2020_Mar_04_1424,59.9498311183,duckFrog,001,11,
duck,wnL.wav,-20,landoltCL.png,V1,duckFront.png,frogFront.png,HinCongWN,b,20,landoltCBottom.png,,,,,6,0,480,47,,,b,0,0.516939476074,,,2020_Mar_04_1424,59.9498311183,duckFrog,001,11,
duck,wnR.wav,20,landoltCTop.png,V1,frogFront.png,duckFront.png,HinCongWN,h,-20,landoltCR.png,,,,,6,1,481,3,,,h,0,0.467275149858,,,2020_Mar_04_1424,59.9498311183,duckFrog,001,11,
duck,quackL.wav,20,landoltCBottom.png,V1,frogFront.png,duckFront.png,Hcong,b,-20,landoltCR.png,,,,,6,2,482,40,,,b,0,0.500871487253,,,2020_Mar_04_1424,59.9498311183,duckFrog,001,11,
duck,wnR.wav,-20,landoltCL.png,V1,duckFront.png,frogFront.png,HcongWN,h,20,landoltCTop.png,,,,,6,3,483,5,,,h,0,1.21787437753,,,2020_Mar_04_1424,59.9498311183,duckFrog,001,11,
frog,quackL.wav,-20,landoltCL.png,V1,frogFront.png,duckFront.png,LinCong,h,20,landoltCTop.png,,,,,6,4,484,30,,,h,0,0.967892980261,,,2020_Mar_04_1424,59.9498311183,duckFrog,001,11,
duck,wnL.wav,20,landoltCBottom.png,V1,frogFront.png,duckFront.png,HcongWN,b,-20,landoltCL.png,,,,,6,5,485,73,,,b,0,0.650782689016,,,2020_Mar_04_1424,59.9498311183,duckFrog,001,11,
duck,wnR.wav,-20,landoltCL.png,V1,duckFront.png,frogFront.png,HcongWN,h,20,landoltCTop.png,,,,,6,6,486,37,,,h,0,0.534003764536,,,2020_Mar_04_1424,59.9498311183,duckFrog,001,11,
duck,ribbitL.wav,-20,landoltCR.png,V1,duckFront.png,frogFront.png,HinCong,b,20,landoltCBottom.png,,,,,6,7,487,14,,,b,0,0.567561980046,,,2020_Mar_04_1424,59.9498311183,duckFrog,001,11,
duck,wnL.wav,20,landoltCTop.png,V1,frogFront.png,duckFront.png,HcongWN,h,-20,landoltCR.png,,,,,6,8,488,49,,,h,0,0.450548093097,,,2020_Mar_04_1424,59.9498311183,duckFrog,001,11,
duck,wnR.wav,-20,landoltCL.png,V1,duckFront.png,frogFront.png,HcongWN,h,20,landoltCTop.png,,,,,6,9,489,53,,,h,0,0.750817328575,,,2020_Mar_04_1424,59.9498311183,duckFrog,001,11,
frog,wnR.wav,-20,landoltCR.png,V1,frogFront.png,duckFront.png,LcongWN,h,20,landoltCTop.png,,,,,6,10,490,29,,,h,0,1.1347222146,,,2020_Mar_04_1424,59.9498311183,duckFrog,001,11,
duck,wnL.wav,20,landoltCTop.png,V1,frogFront.png,duckFront.png,HcongWN,h,-20,landoltCR.png,,,,,6,11,491,33,,,h,0,0.900953229284,,,2020_Mar_04_1424,59.9498311183,duckFrog,001,11,
duck,wnR.wav,-20,landoltCL.png,V1,duckFront.png,frogFront.png,HcongWN,b,20,landoltCBottom.png,,,,,6,12,492,77,,,b,0,0.433893247857,,,2020_Mar_04_1424,59.9498311183,duckFrog,001,11,
duck,quackR.wav,-20,landoltCR.png,V1,duckFront.png,frogFront.png,Hcong,b,20,landoltCBottom.png,,,,,6,13,493,76,,,b,0,0.467506813351,,,2020_Mar_04_1424,59.9498311183,duckFrog,001,11,
duck,ribbitL.wav,-20,landoltCR.png,V1,duckFront.png,frogFront.png,HinCong,b,20,landoltCBottom.png,,,,,6,14,494,78,,,b,0,0.534191074723,,,2020_Mar_04_1424,59.9498311183,duckFrog,001,11,
duck,wnL.wav,20,landoltCTop.png,V1,frogFront.png,duckFront.png,HcongWN,h,-20,landoltCR.png,,,,,6,15,495,65,,,h,0,0.900925370981,,,2020_Mar_04_1424,59.9498311183,duckFrog,001,11,
duck,ribbitL.wav,-20,landoltCR.png,V1,duckFront.png,frogFront.png,HinCong,h,20,landoltCTop.png,,,,,6,16,496,38,,,h,0,1.44947298389,,,2020_Mar_04_1424,59.9498311183,duckFrog,001,11,
frog,wnR.wav,20,landoltCTop.png,V1,duckFront.png,frogFront.png,LinCongWN,h,-20,landoltCL.png,,,,,6,17,497,27,,,h,0,1.23452629033,,,2020_Mar_04_1424,59.9498311183,duckFrog,001,11,
duck,quackR.wav,-20,landoltCR.png,V1,duckFront.png,frogFront.png,Hcong,h,20,landoltCTop.png,,,,,6,18,498,52,,,h,0,0.584035379987,,,2020_Mar_04_1424,59.9498311183,duckFrog,001,11,
duck,wnR.wav,20,landoltCBottom.png,V1,frogFront.png,duckFront.png,HinCongWN,b,-20,landoltCL.png,,,,,6,19,499,43,,,b,0,0.483964451385,,,2020_Mar_04_1424,59.9498311183,duckFrog,001,11,
duck,quackR.wav,-20,landoltCR.png,V1,duckFront.png,frogFront.png,Hcong,h,20,landoltCTop.png,,,,,6,20,500,36,,,h,0,0.634035838186,,,2020_Mar_04_1424,59.9498311183,duckFrog,001,11,
duck,wnL.wav,-20,landoltCL.png,V1,duckFront.png,frogFront.png,HinCongWN,b,20,landoltCBottom.png,,,,,6,21,501,79,,,b,0,0.567556848284,,,2020_Mar_04_1424,59.9498311183,duckFrog,001,11,
frog,quackR.wav,20,landoltCTop.png,V1,duckFront.png,frogFront.png,LinCong,h,-20,landoltCR.png,,,,,6,22,502,26,,,h,0,0.950990709651,,,2020_Mar_04_1424,59.9498311183,duckFrog,001,11,
duck,wnL.wav,20,landoltCBottom.png,V1,frogFront.png,duckFront.png,HcongWN,b,-20,landoltCL.png,,,,,6,23,503,9,,,h,0,0.784398270596,,,2020_Mar_04_1424,59.9498311183,duckFrog,001,11,
duck,wnL.wav,20,landoltCBottom.png,V1,frogFront.png,duckFront.png,HcongWN,b,-20,landoltCL.png,,,,,6,24,504,57,,,b,0,0.734364455799,,,2020_Mar_04_1424,59.9498311183,duckFrog,001,11,
duck,quackR.wav,-20,landoltCR.png,V1,duckFront.png,frogFront.png,Hcong,h,20,landoltCTop.png,,,,,6,25,505,4,,,h,0,0.450504106353,,,2020_Mar_04_1424,59.9498311183,duckFrog,001,11,
frog,wnL.wav,20,landoltCBottom.png,V1,duckFront.png,frogFront.png,LcongWN,b,-20,landoltCR.png,,,,,6,26,506,17,,,b,0,1.13447002397,,,2020_Mar_04_1424,59.9498311183,duckFrog,001,11,
duck,wnR.wav,20,landoltCTop.png,V1,frogFront.png,duckFront.png,HinCongWN,h,-20,landoltCR.png,,,,,6,27,507,51,,,h,0,0.801081340614,,,2020_Mar_04_1424,59.9498311183,duckFrog,001,11,
duck,ribbitR.wav,20,landoltCTop.png,V1,frogFront.png,duckFront.png,HinCong,h,-20,landoltCL.png,,,,,6,28,508,2,,,h,0,0.450803216168,,,2020_Mar_04_1424,59.9498311183,duckFrog,001,11,
duck,wnL.wav,-20,landoltCL.png,V1,duckFront.png,frogFront.png,HinCongWN,b,20,landoltCBottom.png,,,,,6,29,509,15,,,b,0,0.417206145677,,,2020_Mar_04_1424,59.9498311183,duckFrog,001,11,
duck,wnR.wav,20,landoltCBottom.png,V1,frogFront.png,duckFront.png,HinCongWN,b,-20,landoltCL.png,,,,,6,30,510,75,,,b,0,0.53398690297,,,2020_Mar_04_1424,59.9498311183,duckFrog,001,11,
duck,ribbitR.wav,20,landoltCBottom.png,V1,frogFront.png,duckFront.png,HinCong,b,-20,landoltCR.png,,,,,6,31,511,10,,,b,0,0.417663241213,,,2020_Mar_04_1424,59.9498311183,duckFrog,001,11,
duck,quackL.wav,20,landoltCBottom.png,V1,frogFront.png,duckFront.png,Hcong,b,-20,landoltCR.png,,,,,6,32,512,72,,,b,0,0.40077050103,,,2020_Mar_04_1424,59.9498311183,duckFrog,001,11,
duck,ribbitL.wav,-20,landoltCR.png,V1,duckFront.png,frogFront.png,HinCong,h,20,landoltCTop.png,,,,,6,33,513,70,,,h,0,0.684086514579,,,2020_Mar_04_1424,59.9498311183,duckFrog,001,11,
duck,quackR.wav,-20,landoltCR.png,V1,duckFront.png,frogFront.png,Hcong,b,20,landoltCBottom.png,,,,,6,34,514,12,,,b,0,0.450805048953,,,2020_Mar_04_1424,59.9498311183,duckFrog,001,11,
frog,ribbitL.wav,20,landoltCTop.png,V1,duckFront.png,frogFront.png,Lcong,h,-20,landoltCR.png,,,,,6,35,515,24,,,h,0,1.1011016845,,,2020_Mar_04_1424,59.9498311183,duckFrog,001,11,
duck,ribbitL.wav,-20,landoltCR.png,V1,duckFront.png,frogFront.png,HinCong,b,20,landoltCBottom.png,,,,,6,36,516,62,,,b,0,0.667449630593,,,2020_Mar_04_1424,59.9498311183,duckFrog,001,11,
duck,ribbitR.wav,20,landoltCBottom.png,V1,frogFront.png,duckFront.png,HinCong,b,-20,landoltCR.png,,,,,6,37,517,58,,,b,0,0.450576317904,,,2020_Mar_04_1424,59.9498311183,duckFrog,001,11,
duck,wnR.wav,20,landoltCBottom.png,V1,frogFront.png,duckFront.png,HinCongWN,b,-20,landoltCL.png,,,,,6,38,518,59,,,b,0,0.767680377699,,,2020_Mar_04_1424,59.9498311183,duckFrog,001,11,
frog,ribbitR.wav,-20,landoltCL.png,V1,frogFront.png,duckFront.png,Lcong,b,20,landoltCBottom.png,,,,,6,39,519,20,,,b,0,1.05105027501,,,2020_Mar_04_1424,59.9498311183,duckFrog,001,11,
duck,wnL.wav,-20,landoltCL.png,V1,duckFront.png,frogFront.png,HinCongWN,b,20,landoltCBottom.png,,,,,6,40,520,63,,,b,0,0.484152861231,,,2020_Mar_04_1424,59.9498311183,duckFrog,001,11,
duck,wnL.wav,20,landoltCTop.png,V1,frogFront.png,duckFront.png,HcongWN,h,-20,landoltCR.png,,,,,6,41,521,1,,,h,0,0.967678544926,,,2020_Mar_04_1424,59.9498311183,duckFrog,001,11,
duck,ribbitR.wav,20,landoltCBottom.png,V1,frogFront.png,duckFront.png,HinCong,b,-20,landoltCR.png,,,,,6,42,522,42,,,b,0,0.550918864639,,,2020_Mar_04_1424,59.9498311183,duckFrog,001,11,
duck,ribbitL.wav,-20,landoltCR.png,V1,duckFront.png,frogFront.png,HinCong,h,20,landoltCTop.png,,,,,6,43,523,6,,,h,0,0.63408495672,,,2020_Mar_04_1424,59.9498311183,duckFrog,001,11,
duck,ribbitR.wav,20,landoltCTop.png,V1,frogFront.png,duckFront.png,HinCong,h,-20,landoltCL.png,,,,,6,44,524,34,,,h,0,0.567407659924,,,2020_Mar_04_1424,59.9498311183,duckFrog,001,11,
frog,ribbitL.wav,20,landoltCBottom.png,V1,duckFront.png,frogFront.png,Lcong,b,-20,landoltCL.png,,,,,6,45,525,16,,,b,0,0.684344570123,,,2020_Mar_04_1424,59.9498311183,duckFrog,001,11,
frog,wnL.wav,20,landoltCTop.png,V1,duckFront.png,frogFront.png,LcongWN,h,-20,landoltCL.png,,,,,6,46,526,25,,,h,0,0.984541594051,,,2020_Mar_04_1424,59.9498311183,duckFrog,001,11,
duck,ribbitL.wav,-20,landoltCR.png,V1,duckFront.png,frogFront.png,HinCong,b,20,landoltCBottom.png,,,,,6,47,527,46,,,b,0,0.968389297283,,,2020_Mar_04_1424,59.9498311183,duckFrog,001,11,
duck,quackR.wav,-20,landoltCR.png,V1,duckFront.png,frogFront.png,Hcong,b,20,landoltCBottom.png,,,,,6,48,528,44,,,b,0,0.434240009985,,,2020_Mar_04_1424,59.9498311183,duckFrog,001,11,
duck,quackL.wav,20,landoltCBottom.png,V1,frogFront.png,duckFront.png,Hcong,b,-20,landoltCR.png,,,,,6,49,529,8,,,b,0,0.417142364895,,,2020_Mar_04_1424,59.9498311183,duckFrog,001,11,
duck,quackL.wav,20,landoltCTop.png,V1,frogFront.png,duckFront.png,Hcong,h,-20,landoltCL.png,,,,,6,50,530,48,,,h,0,0.500867821713,,,2020_Mar_04_1424,59.9498311183,duckFrog,001,11,
duck,quackL.wav,20,landoltCBottom.png,V1,frogFront.png,duckFront.png,Hcong,b,-20,landoltCR.png,,,,,6,51,531,56,,,b,0,0.534187409154,,,2020_Mar_04_1424,59.9498311183,duckFrog,001,11,
duck,wnR.wav,20,landoltCBottom.png,V1,frogFront.png,duckFront.png,HinCongWN,b,-20,landoltCL.png,,,,,6,52,532,11,,,b,0,0.500860124012,,,2020_Mar_04_1424,59.9498311183,duckFrog,001,11,
frog,quackL.wav,-20,landoltCL.png,V1,frogFront.png,duckFront.png,LinCong,b,20,landoltCBottom.png,,,,,6,53,533,22,,,b,0,1.06764280569,,,2020_Mar_04_1424,59.9498311183,duckFrog,001,11,
duck,quackR.wav,-20,landoltCR.png,V1,duckFront.png,frogFront.png,Hcong,h,20,landoltCTop.png,,,,,6,54,534,68,,,h,0,1.01791909739,,,2020_Mar_04_1424,59.9498311183,duckFrog,001,11,
frog,quackR.wav,20,landoltCBottom.png,V1,duckFront.png,frogFront.png,LinCong,b,-20,landoltCL.png,,,,,6,55,535,18,,,b,0,1.01770392893,,,2020_Mar_04_1424,59.9498311183,duckFrog,001,11,
duck,wnR.wav,20,landoltCTop.png,V1,frogFront.png,duckFront.png,HinCongWN,h,-20,landoltCR.png,,,,,6,56,536,67,,,h,0,0.784420263954,,,2020_Mar_04_1424,59.9498311183,duckFrog,001,11,
duck,quackL.wav,20,landoltCTop.png,V1,frogFront.png,duckFront.png,Hcong,h,-20,landoltCL.png,,,,,6,57,537,0,,,h,0,0.500854259095,,,2020_Mar_04_1424,59.9498311183,duckFrog,001,11,
duck,wnR.wav,-20,landoltCL.png,V1,duckFront.png,frogFront.png,HcongWN,b,20,landoltCBottom.png,,,,,6,58,538,61,,,b,0,0.583983695571,,,2020_Mar_04_1424,59.9498311183,duckFrog,001,11,
duck,wnL.wav,-20,landoltCL.png,V1,duckFront.png,frogFront.png,HinCongWN,h,20,landoltCTop.png,,,,,6,59,539,71,,,h,0,0.584263011348,,,2020_Mar_04_1424,59.9498311183,duckFrog,001,11,
frog,wnL.wav,-20,landoltCR.png,V1,frogFront.png,duckFront.png,LinCongWN,b,20,landoltCBottom.png,,,,,6,60,540,23,,,b,0,1.05128523751,,,2020_Mar_04_1424,59.9498311183,duckFrog,001,11,
frog,wnR.wav,-20,landoltCR.png,V1,frogFront.png,duckFront.png,LcongWN,b,20,landoltCBottom.png,,,,,6,61,541,21,,,b,0,0.467616047099,,,2020_Mar_04_1424,59.9498311183,duckFrog,001,11,
duck,wnL.wav,-20,landoltCL.png,V1,duckFront.png,frogFront.png,HinCongWN,h,20,landoltCTop.png,,,,,6,62,542,55,,,h,0,0.417643080611,,,2020_Mar_04_1424,59.9498311183,duckFrog,001,11,
duck,ribbitL.wav,-20,landoltCR.png,V1,duckFront.png,frogFront.png,HinCong,h,20,landoltCTop.png,,,,,6,63,543,54,,,h,0,1.01317402802,,,2020_Mar_04_1424,59.9498311183,duckFrog,001,11,
duck,wnL.wav,-20,landoltCL.png,V1,duckFront.png,frogFront.png,HinCongWN,h,20,landoltCTop.png,,,,,6,64,544,7,,,h,0,0.534218932997,,,2020_Mar_04_1424,59.9498311183,duckFrog,001,11,
duck,wnR.wav,-20,landoltCL.png,V1,duckFront.png,frogFront.png,HcongWN,b,20,landoltCBottom.png,,,,,6,65,545,13,,,b,0,0.567545851576,,,2020_Mar_04_1424,59.9498311183,duckFrog,001,11,
