targetAnim,audioPos,distPos,visualL,expLab,picR,picL,condLabel,corrAns,targetPos,visualR,pracTrials1a.thisRepN,pracTrials1a.thisTrialN,pracTrials1a.thisN,pracTrials1a.thisIndex,exp1a.thisRepN,exp1a.thisTrialN,exp1a.thisN,exp1a.thisIndex,pressToCont.keys,pressToCont.rt,key_resp_2.keys,key_resp_2.corr,key_resp_2.rt,spaceToBegin.keys,spaceToBegin.rt,date,frameRate,expName,session,participant,
,,,,,,,,,,,,,,,,,,,space,9.10766487237,,,,,,2020_Mar_04_1508,59.9714442084,duckFrog,001,12,
frog,ribbitR.wav,-20,landoltCL.png,prac,frogFront.png,duckFront.png,Lcong,b,20,landoltCBottom.png,0,0,0,3,,,,,,,b,0,2.66923475906,,,2020_Mar_04_1508,59.9714442084,duckFrog,001,12,
duck,quackL.wav,20,landoltCTop.png,prac,frogFront.png,duckFront.png,Hcong,h,-20,landoltCL.png,0,1,1,0,,,,,,,h,0,2.91919782851,,,2020_Mar_04_1508,59.9714442084,duckFrog,001,12,
frog,wnR.wav,20,landoltCBottom.png,prac,duckFront.png,frogFront.png,LinCongWN,b,-20,landoltCR.png,0,2,2,2,,,,,,,b,0,2.21886664504,,,2020_Mar_04_1508,59.9714442084,duckFrog,001,12,
duck,wnL.wav,20,landoltCBottom.png,prac,frogFront.png,duckFront.png,HcongWN,b,-20,landoltCL.png,0,3,3,4,,,,,,,b,0,1.30151625953,,,2020_Mar_04_1508,59.9714442084,duckFrog,001,12,
duck,ribbitL.wav,-20,landoltCR.png,prac,duckFront.png,frogFront.png,HinCong,h,20,landoltCTop.png,0,4,4,1,,,,,,,h,0,1.45137101164,,,2020_Mar_04_1508,59.9714442084,duckFrog,001,12,
,,,,,,,,,,,,,,,,,,,,,,,,space,1.76854545021,2020_Mar_04_1508,59.9714442084,duckFrog,001,12,
frog,ribbitR.wav,-20,landoltCL.png,V2,frogFront.png,duckFront.png,Hcong,h,20,landoltCTop.png,,,,,0,0,0,28,,,h,0,0.684346402879,,,2020_Mar_04_1508,59.9714442084,duckFrog,001,12,
frog,wnL.wav,-20,landoltCR.png,V2,frogFront.png,duckFront.png,HinCongWN,b,20,landoltCBottom.png,,,,,0,1,1,23,,,b,0,1.41825229692,,,2020_Mar_04_1508,59.9714442084,duckFrog,001,12,
frog,quackL.wav,-20,landoltCL.png,V2,frogFront.png,duckFront.png,HinCong,h,20,landoltCTop.png,,,,,0,2,2,46,,,h,0,1.2182900522,,,2020_Mar_04_1508,59.9714442084,duckFrog,001,12,
frog,wnL.wav,-20,landoltCR.png,V2,frogFront.png,duckFront.png,HinCongWN,b,20,landoltCBottom.png,,,,,0,3,3,39,,,b,0,1.31814874482,,,2020_Mar_04_1508,59.9714442084,duckFrog,001,12,
frog,wnR.wav,20,landoltCTop.png,V2,duckFront.png,frogFront.png,HinCongWN,h,-20,landoltCL.png,,,,,0,4,4,59,,,h,0,0.834177328885,,,2020_Mar_04_1508,59.9714442084,duckFrog,001,12,
duck,ribbitR.wav,20,landoltCTop.png,V2,frogFront.png,duckFront.png,LinCong,h,-20,landoltCL.png,,,,,0,5,5,2,,,b,0,1.55177220734,,,2020_Mar_04_1508,59.9714442084,duckFrog,001,12,
frog,ribbitL.wav,20,landoltCBottom.png,V2,duckFront.png,frogFront.png,Hcong,b,-20,landoltCL.png,,,,,0,6,6,32,,,b,0,1.01789563781,,,2020_Mar_04_1508,59.9714442084,duckFrog,001,12,
frog,wnR.wav,20,landoltCBottom.png,V2,duckFront.png,frogFront.png,HinCongWN,b,-20,landoltCR.png,,,,,0,7,7,67,,,b,0,0.867823151319,,,2020_Mar_04_1508,59.9714442084,duckFrog,001,12,
frog,wnR.wav,-20,landoltCR.png,V2,frogFront.png,duckFront.png,HcongWN,b,20,landoltCBottom.png,,,,,0,8,8,53,,,b,0,1.18451007022,,,2020_Mar_04_1508,59.9714442084,duckFrog,001,12,
frog,ribbitR.wav,-20,landoltCL.png,V2,frogFront.png,duckFront.png,Hcong,h,20,landoltCTop.png,,,,,0,9,9,76,,,h,0,1.15217285324,,,2020_Mar_04_1508,59.9714442084,duckFrog,001,12,
frog,wnR.wav,-20,landoltCR.png,V2,frogFront.png,duckFront.png,HcongWN,b,20,landoltCBottom.png,,,,,0,10,10,37,,,b,0,0.767760286923,,,2020_Mar_04_1508,59.9714442084,duckFrog,001,12,
duck,ribbitL.wav,-20,landoltCR.png,V2,duckFront.png,frogFront.png,LinCong,h,20,landoltCTop.png,,,,,0,11,11,6,,,h,0,1.23542728534,,,2020_Mar_04_1508,59.9714442084,duckFrog,001,12,
frog,wnR.wav,-20,landoltCR.png,V2,frogFront.png,duckFront.png,HcongWN,b,20,landoltCBottom.png,,,,,0,12,12,69,,,b,0,0.951215408568,,,2020_Mar_04_1508,59.9714442084,duckFrog,001,12,
frog,quackL.wav,-20,landoltCL.png,V2,frogFront.png,duckFront.png,HinCong,b,20,landoltCBottom.png,,,,,0,13,13,22,,,b,0,1.35156730245,,,2020_Mar_04_1508,59.9714442084,duckFrog,001,12,
frog,quackR.wav,20,landoltCTop.png,V2,duckFront.png,frogFront.png,HinCong,h,-20,landoltCR.png,,,,,0,14,14,42,,,h,0,1.00092665394,,,2020_Mar_04_1508,59.9714442084,duckFrog,001,12,
frog,wnL.wav,20,landoltCTop.png,V2,duckFront.png,frogFront.png,HcongWN,h,-20,landoltCL.png,,,,,0,15,15,41,,,h,0,1.16805206565,,,2020_Mar_04_1508,59.9714442084,duckFrog,001,12,
frog,quackR.wav,20,landoltCTop.png,V2,duckFront.png,frogFront.png,HinCong,h,-20,landoltCR.png,,,,,0,16,16,58,,,h,0,1.56837866717,,,2020_Mar_04_1508,59.9714442084,duckFrog,001,12,
frog,wnR.wav,20,landoltCBottom.png,V2,duckFront.png,frogFront.png,HinCongWN,b,-20,landoltCR.png,,,,,0,17,17,19,,,b,0,1.65180391446,,,2020_Mar_04_1508,59.9714442084,duckFrog,001,12,
duck,quackR.wav,-20,landoltCR.png,V2,duckFront.png,frogFront.png,Lcong,h,20,landoltCTop.png,,,,,0,18,18,4,,,h,0,1.13446782462,,,2020_Mar_04_1508,59.9714442084,duckFrog,001,12,
frog,wnR.wav,20,landoltCTop.png,V2,duckFront.png,frogFront.png,HinCongWN,h,-20,landoltCL.png,,,,,0,19,19,75,,,h,0,1.06773481128,,,2020_Mar_04_1508,59.9714442084,duckFrog,001,12,
frog,wnL.wav,20,landoltCTop.png,V2,duckFront.png,frogFront.png,HcongWN,h,-20,landoltCL.png,,,,,0,20,20,25,,,h,0,1.08458906307,,,2020_Mar_04_1508,59.9714442084,duckFrog,001,12,
frog,ribbitL.wav,20,landoltCTop.png,V2,duckFront.png,frogFront.png,Hcong,h,-20,landoltCR.png,,,,,0,21,21,56,,,h,0,0.901133941457,,,2020_Mar_04_1508,59.9714442084,duckFrog,001,12,
frog,quackR.wav,20,landoltCBottom.png,V2,duckFront.png,frogFront.png,HinCong,b,-20,landoltCL.png,,,,,0,22,22,50,,,b,0,1.60226091833,,,2020_Mar_04_1508,59.9714442084,duckFrog,001,12,
duck,quackR.wav,-20,landoltCR.png,V2,duckFront.png,frogFront.png,Lcong,b,20,landoltCBottom.png,,,,,0,23,23,12,,,b,0,1.2678942632,,,2020_Mar_04_1508,59.9714442084,duckFrog,001,12,
frog,wnL.wav,20,landoltCTop.png,V2,duckFront.png,frogFront.png,HcongWN,h,-20,landoltCL.png,,,,,0,24,24,73,,,h,0,1.46803978601,,,2020_Mar_04_1508,59.9714442084,duckFrog,001,12,
frog,quackL.wav,-20,landoltCL.png,V2,frogFront.png,duckFront.png,HinCong,b,20,landoltCBottom.png,,,,,0,25,25,70,,,b,0,1.40137715146,,,2020_Mar_04_1508,59.9714442084,duckFrog,001,12,
frog,quackR.wav,20,landoltCTop.png,V2,duckFront.png,frogFront.png,HinCong,h,-20,landoltCR.png,,,,,0,26,26,74,,,h,0,1.20120230416,,,2020_Mar_04_1508,59.9714442084,duckFrog,001,12,
frog,quackL.wav,-20,landoltCL.png,V2,frogFront.png,duckFront.png,HinCong,h,20,landoltCTop.png,,,,,0,27,27,30,,,h,0,1.46799726548,,,2020_Mar_04_1508,59.9714442084,duckFrog,001,12,
frog,wnL.wav,-20,landoltCR.png,V2,frogFront.png,duckFront.png,HinCongWN,h,20,landoltCTop.png,,,,,0,28,28,79,,,h,0,1.50165078562,,,2020_Mar_04_1508,59.9714442084,duckFrog,001,12,
frog,wnR.wav,-20,landoltCR.png,V2,frogFront.png,duckFront.png,HcongWN,h,20,landoltCTop.png,,,,,0,29,29,61,,,h,0,1.21914999295,,,2020_Mar_04_1508,59.9714442084,duckFrog,001,12,
duck,wnL.wav,20,landoltCTop.png,V2,frogFront.png,duckFront.png,LcongWN,h,-20,landoltCR.png,,,,,0,30,30,1,,,h,0,1.01772042396,,,2020_Mar_04_1508,59.9714442084,duckFrog,001,12,
frog,wnL.wav,-20,landoltCR.png,V2,frogFront.png,duckFront.png,HinCongWN,h,20,landoltCTop.png,,,,,0,31,31,31,,,b,0,0.884273824777,,,2020_Mar_04_1508,59.9714442084,duckFrog,001,12,
duck,wnR.wav,20,landoltCTop.png,V2,frogFront.png,duckFront.png,LinCongWN,h,-20,landoltCR.png,,,,,0,32,32,3,,,h,0,0.734204637294,,,2020_Mar_04_1508,59.9714442084,duckFrog,001,12,
frog,quackR.wav,20,landoltCTop.png,V2,duckFront.png,frogFront.png,HinCong,h,-20,landoltCR.png,,,,,0,33,33,26,,,h,0,0.734357857757,,,2020_Mar_04_1508,59.9714442084,duckFrog,001,12,
frog,ribbitR.wav,-20,landoltCL.png,V2,frogFront.png,duckFront.png,Hcong,b,20,landoltCBottom.png,,,,,0,34,34,20,,,b,0,1.00102195854,,,2020_Mar_04_1508,59.9714442084,duckFrog,001,12,
frog,wnR.wav,-20,landoltCR.png,V2,frogFront.png,duckFront.png,HcongWN,b,20,landoltCBottom.png,,,,,0,35,35,21,,,b,0,1.03461279758,,,2020_Mar_04_1508,59.9714442084,duckFrog,001,12,
frog,quackL.wav,-20,landoltCL.png,V2,frogFront.png,duckFront.png,HinCong,b,20,landoltCBottom.png,,,,,0,36,36,38,,,b,0,1.61855250641,,,2020_Mar_04_1508,59.9714442084,duckFrog,001,12,
frog,ribbitR.wav,-20,landoltCL.png,V2,frogFront.png,duckFront.png,Hcong,h,20,landoltCTop.png,,,,,0,37,37,44,,,h,0,1.01791836429,,,2020_Mar_04_1508,59.9714442084,duckFrog,001,12,
duck,wnR.wav,-20,landoltCL.png,V2,duckFront.png,frogFront.png,LcongWN,h,20,landoltCTop.png,,,,,0,38,38,5,,,h,0,2.3187073764,,,2020_Mar_04_1508,59.9714442084,duckFrog,001,12,
frog,wnL.wav,-20,landoltCR.png,V2,frogFront.png,duckFront.png,HinCongWN,h,20,landoltCTop.png,,,,,0,39,39,47,,,h,0,1.40156812718,,,2020_Mar_04_1508,59.9714442084,duckFrog,001,12,
frog,ribbitR.wav,-20,landoltCL.png,V2,frogFront.png,duckFront.png,Hcong,b,20,landoltCBottom.png,,,,,0,40,40,68,,,b,0,0.851201662706,,,2020_Mar_04_1508,59.9714442084,duckFrog,001,12,
frog,wnR.wav,20,landoltCBottom.png,V2,duckFront.png,frogFront.png,HinCongWN,b,-20,landoltCR.png,,,,,0,41,41,35,,,b,0,1.36799451633,,,2020_Mar_04_1508,59.9714442084,duckFrog,001,12,
frog,wnL.wav,20,landoltCBottom.png,V2,duckFront.png,frogFront.png,HcongWN,b,-20,landoltCR.png,,,,,0,42,42,33,,,b,0,0.951205878111,,,2020_Mar_04_1508,59.9714442084,duckFrog,001,12,
duck,wnL.wav,20,landoltCBottom.png,V2,frogFront.png,duckFront.png,LcongWN,b,-20,landoltCL.png,,,,,0,43,43,9,,,b,0,1.35155520609,,,2020_Mar_04_1508,59.9714442084,duckFrog,001,12,
frog,quackL.wav,-20,landoltCL.png,V2,frogFront.png,duckFront.png,HinCong,b,20,landoltCBottom.png,,,,,0,44,44,54,,,b,0,1.38466182444,,,2020_Mar_04_1508,59.9714442084,duckFrog,001,12,
frog,ribbitR.wav,-20,landoltCL.png,V2,frogFront.png,duckFront.png,Hcong,b,20,landoltCBottom.png,,,,,0,45,45,36,,,b,0,1.19898134048,,,2020_Mar_04_1508,59.9714442084,duckFrog,001,12,
frog,quackR.wav,20,landoltCBottom.png,V2,duckFront.png,frogFront.png,HinCong,b,-20,landoltCL.png,,,,,0,46,46,18,,,b,0,1.33466906394,,,2020_Mar_04_1508,59.9714442084,duckFrog,001,12,
duck,quackL.wav,20,landoltCTop.png,V2,frogFront.png,duckFront.png,Lcong,h,-20,landoltCL.png,,,,,0,47,47,0,,,h,0,1.30151039461,,,2020_Mar_04_1508,59.9714442084,duckFrog,001,12,
duck,wnR.wav,-20,landoltCL.png,V2,duckFront.png,frogFront.png,LcongWN,b,20,landoltCBottom.png,,,,,0,48,48,13,,,b,0,1.08440138632,,,2020_Mar_04_1508,59.9714442084,duckFrog,001,12,
frog,ribbitR.wav,-20,landoltCL.png,V2,frogFront.png,duckFront.png,Hcong,h,20,landoltCTop.png,,,,,0,49,49,60,,,h,0,0.96786805446,,,2020_Mar_04_1508,59.9714442084,duckFrog,001,12,
frog,wnL.wav,20,landoltCTop.png,V2,duckFront.png,frogFront.png,HcongWN,h,-20,landoltCL.png,,,,,0,50,50,57,,,h,0,1.06775460532,,,2020_Mar_04_1508,59.9714442084,duckFrog,001,12,
frog,wnL.wav,-20,landoltCR.png,V2,frogFront.png,duckFront.png,HinCongWN,h,20,landoltCTop.png,,,,,0,51,51,63,,,h,0,1.15114246387,,,2020_Mar_04_1508,59.9714442084,duckFrog,001,12,
frog,wnR.wav,-20,landoltCR.png,V2,frogFront.png,duckFront.png,HcongWN,h,20,landoltCTop.png,,,,,0,52,52,29,,,h,0,0.984582281788,,,2020_Mar_04_1508,59.9714442084,duckFrog,001,12,
frog,quackR.wav,20,landoltCBottom.png,V2,duckFront.png,frogFront.png,HinCong,b,-20,landoltCL.png,,,,,0,53,53,34,,,b,0,1.40135809054,,,2020_Mar_04_1508,59.9714442084,duckFrog,001,12,
duck,ribbitL.wav,-20,landoltCR.png,V2,duckFront.png,frogFront.png,LinCong,b,20,landoltCBottom.png,,,,,0,54,54,14,,,b,0,1.41802943079,,,2020_Mar_04_1508,59.9714442084,duckFrog,001,12,
frog,wnR.wav,20,landoltCBottom.png,V2,duckFront.png,frogFront.png,HinCongWN,b,-20,landoltCR.png,,,,,0,55,55,51,,,b,0,1.30127323276,,,2020_Mar_04_1508,59.9714442084,duckFrog,001,12,
frog,ribbitL.wav,20,landoltCTop.png,V2,duckFront.png,frogFront.png,Hcong,h,-20,landoltCR.png,,,,,0,56,56,24,,,h,0,1.08460849055,,,2020_Mar_04_1508,59.9714442084,duckFrog,001,12,
frog,wnR.wav,20,landoltCTop.png,V2,duckFront.png,frogFront.png,HinCongWN,h,-20,landoltCL.png,,,,,0,57,57,43,,,h,0,1.38490081907,,,2020_Mar_04_1508,59.9714442084,duckFrog,001,12,
frog,ribbitR.wav,-20,landoltCL.png,V2,frogFront.png,duckFront.png,Hcong,b,20,landoltCBottom.png,,,,,0,58,58,52,,,b,0,0.850912816473,,,2020_Mar_04_1508,59.9714442084,duckFrog,001,12,
frog,wnR.wav,-20,landoltCR.png,V2,frogFront.png,duckFront.png,HcongWN,h,20,landoltCTop.png,,,,,0,59,59,77,,,h,0,0.851126518683,,,2020_Mar_04_1508,59.9714442084,duckFrog,001,12,
frog,quackL.wav,-20,landoltCL.png,V2,frogFront.png,duckFront.png,HinCong,h,20,landoltCTop.png,,,,,0,60,60,78,,,h,0,1.30148070355,,,2020_Mar_04_1508,59.9714442084,duckFrog,001,12,
duck,quackL.wav,20,landoltCBottom.png,V2,frogFront.png,duckFront.png,Lcong,b,-20,landoltCR.png,,,,,0,61,61,8,,,b,0,1.10112221166,,,2020_Mar_04_1508,59.9714442084,duckFrog,001,12,
frog,wnR.wav,20,landoltCTop.png,V2,duckFront.png,frogFront.png,HinCongWN,h,-20,landoltCL.png,,,,,0,62,62,27,,,h,0,2.05209166103,,,2020_Mar_04_1508,59.9714442084,duckFrog,001,12,
frog,ribbitL.wav,20,landoltCTop.png,V2,duckFront.png,frogFront.png,Hcong,h,-20,landoltCR.png,,,,,0,63,63,72,,,h,0,0.784445189754,,,2020_Mar_04_1508,59.9714442084,duckFrog,001,12,
frog,wnL.wav,-20,landoltCR.png,V2,frogFront.png,duckFront.png,HinCongWN,b,20,landoltCBottom.png,,,,,0,64,64,55,,,b,0,0.717517168552,,,2020_Mar_04_1508,59.9714442084,duckFrog,001,12,
duck,wnL.wav,-20,landoltCL.png,V2,duckFront.png,frogFront.png,LinCongWN,h,20,landoltCTop.png,,,,,0,65,65,7,,,h,0,1.30148253634,,,2020_Mar_04_1508,59.9714442084,duckFrog,001,12,
duck,wnL.wav,-20,landoltCL.png,V2,duckFront.png,frogFront.png,LinCongWN,b,20,landoltCBottom.png,,,,,0,66,66,15,,,b,0,1.33485087581,,,2020_Mar_04_1508,59.9714442084,duckFrog,001,12,
frog,quackL.wav,-20,landoltCL.png,V2,frogFront.png,duckFront.png,HinCong,h,20,landoltCTop.png,,,,,0,67,67,62,,,h,0,1.41822737112,,,2020_Mar_04_1508,59.9714442084,duckFrog,001,12,
frog,wnL.wav,-20,landoltCR.png,V2,frogFront.png,duckFront.png,HinCongWN,b,20,landoltCBottom.png,,,,,0,68,68,71,,,b,0,1.15144194025,,,2020_Mar_04_1508,59.9714442084,duckFrog,001,12,
frog,wnL.wav,20,landoltCBottom.png,V2,duckFront.png,frogFront.png,HcongWN,b,-20,landoltCR.png,,,,,0,69,69,17,,,b,0,0.950969082827,,,2020_Mar_04_1508,59.9714442084,duckFrog,001,12,
frog,wnR.wav,-20,landoltCR.png,V2,frogFront.png,duckFront.png,HcongWN,h,20,landoltCTop.png,,,,,0,70,70,45,,,h,0,0.784172471991,,,2020_Mar_04_1508,59.9714442084,duckFrog,001,12,
frog,wnL.wav,20,landoltCBottom.png,V2,duckFront.png,frogFront.png,HcongWN,b,-20,landoltCR.png,,,,,0,71,71,49,,,b,0,0.800857741415,,,2020_Mar_04_1508,59.9714442084,duckFrog,001,12,
frog,quackR.wav,20,landoltCBottom.png,V2,duckFront.png,frogFront.png,HinCong,b,-20,landoltCL.png,,,,,0,72,72,66,,,b,0,1.23479094385,,,2020_Mar_04_1508,59.9714442084,duckFrog,001,12,
frog,ribbitL.wav,20,landoltCTop.png,V2,duckFront.png,frogFront.png,Hcong,h,-20,landoltCR.png,,,,,0,73,73,40,,,h,0,0.88448312832,,,2020_Mar_04_1508,59.9714442084,duckFrog,001,12,
frog,ribbitL.wav,20,landoltCBottom.png,V2,duckFront.png,frogFront.png,Hcong,b,-20,landoltCL.png,,,,,0,74,74,64,,,b,0,1.98535681493,,,2020_Mar_04_1508,59.9714442084,duckFrog,001,12,
duck,wnR.wav,20,landoltCBottom.png,V2,frogFront.png,duckFront.png,LinCongWN,b,-20,landoltCL.png,,,,,0,75,75,11,,,b,0,1.2848060643,,,2020_Mar_04_1508,59.9714442084,duckFrog,001,12,
frog,ribbitL.wav,20,landoltCBottom.png,V2,duckFront.png,frogFront.png,Hcong,b,-20,landoltCL.png,,,,,0,76,76,48,,,b,0,0.76770640316,,,2020_Mar_04_1508,59.9714442084,duckFrog,001,12,
frog,ribbitL.wav,20,landoltCBottom.png,V2,duckFront.png,frogFront.png,Hcong,b,-20,landoltCL.png,,,,,0,77,77,16,,,b,0,1.33485747382,,,2020_Mar_04_1508,59.9714442084,duckFrog,001,12,
frog,wnL.wav,20,landoltCBottom.png,V2,duckFront.png,frogFront.png,HcongWN,b,-20,landoltCR.png,,,,,0,78,78,65,,,b,0,1.10134654399,,,2020_Mar_04_1508,59.9714442084,duckFrog,001,12,
duck,ribbitR.wav,20,landoltCBottom.png,V2,frogFront.png,duckFront.png,LinCong,b,-20,landoltCR.png,,,,,0,79,79,10,,,b,0,1.45160817346,,,2020_Mar_04_1508,59.9714442084,duckFrog,001,12,
frog,wnL.wav,-20,landoltCR.png,V2,frogFront.png,duckFront.png,HinCongWN,h,20,landoltCTop.png,,,,,1,0,80,79,,,h,0,1.11772390627,,,2020_Mar_04_1508,59.9714442084,duckFrog,001,12,
frog,ribbitL.wav,20,landoltCBottom.png,V2,duckFront.png,frogFront.png,Hcong,b,-20,landoltCL.png,,,,,1,1,81,16,,,b,0,0.73415551876,,,2020_Mar_04_1508,59.9714442084,duckFrog,001,12,
frog,wnL.wav,-20,landoltCR.png,V2,frogFront.png,duckFront.png,HinCongWN,h,20,landoltCTop.png,,,,,1,2,82,63,,,h,0,1.30130182416,,,2020_Mar_04_1508,59.9714442084,duckFrog,001,12,
frog,wnL.wav,20,landoltCTop.png,V2,duckFront.png,frogFront.png,HcongWN,h,-20,landoltCL.png,,,,,1,3,83,41,,,h,0,0.884256596648,,,2020_Mar_04_1508,59.9714442084,duckFrog,001,12,
duck,wnR.wav,20,landoltCBottom.png,V2,frogFront.png,duckFront.png,LinCongWN,b,-20,landoltCL.png,,,,,1,4,84,11,,,b,0,1.35149655712,,,2020_Mar_04_1508,59.9714442084,duckFrog,001,12,
frog,ribbitL.wav,20,landoltCTop.png,V2,duckFront.png,frogFront.png,Hcong,h,-20,landoltCR.png,,,,,1,5,85,24,,,h,0,1.41824239993,,,2020_Mar_04_1508,59.9714442084,duckFrog,001,12,
frog,wnL.wav,20,landoltCTop.png,V2,duckFront.png,frogFront.png,HcongWN,h,-20,landoltCL.png,,,,,1,6,86,57,,,h,0,1.20147282261,,,2020_Mar_04_1508,59.9714442084,duckFrog,001,12,
frog,wnL.wav,20,landoltCTop.png,V2,duckFront.png,frogFront.png,HcongWN,h,-20,landoltCL.png,,,,,1,7,87,25,,,h,0,0.817782371945,,,2020_Mar_04_1508,59.9714442084,duckFrog,001,12,
duck,quackR.wav,-20,landoltCR.png,V2,duckFront.png,frogFront.png,Lcong,b,20,landoltCBottom.png,,,,,1,8,88,12,,,b,0,1.10110754942,,,2020_Mar_04_1508,59.9714442084,duckFrog,001,12,
frog,wnL.wav,20,landoltCBottom.png,V2,duckFront.png,frogFront.png,HcongWN,b,-20,landoltCR.png,,,,,1,9,89,17,,,h,0,1.66824175845,,,2020_Mar_04_1508,59.9714442084,duckFrog,001,12,
frog,ribbitR.wav,-20,landoltCL.png,V2,frogFront.png,duckFront.png,Hcong,b,20,landoltCBottom.png,,,,,1,10,90,36,,,b,0,0.950947456004,,,2020_Mar_04_1508,59.9714442084,duckFrog,001,12,
frog,ribbitR.wav,-20,landoltCL.png,V2,frogFront.png,duckFront.png,Hcong,b,20,landoltCBottom.png,,,,,1,11,91,68,,,b,0,0.801126427046,,,2020_Mar_04_1508,59.9714442084,duckFrog,001,12,
duck,wnL.wav,-20,landoltCL.png,V2,duckFront.png,frogFront.png,LinCongWN,b,20,landoltCBottom.png,,,,,1,12,92,15,,,b,0,1.6186195862,,,2020_Mar_04_1508,59.9714442084,duckFrog,001,12,
frog,quackR.wav,20,landoltCTop.png,V2,duckFront.png,frogFront.png,HinCong,h,-20,landoltCR.png,,,,,1,13,93,74,,,h,0,1.58482970716,,,2020_Mar_04_1508,59.9714442084,duckFrog,001,12,
duck,quackR.wav,-20,landoltCR.png,V2,duckFront.png,frogFront.png,Lcong,h,20,landoltCTop.png,,,,,1,14,94,4,,,h,0,0.934317536594,,,2020_Mar_04_1508,59.9714442084,duckFrog,001,12,
frog,wnR.wav,20,landoltCBottom.png,V2,duckFront.png,frogFront.png,HinCongWN,b,-20,landoltCR.png,,,,,1,15,95,19,,,b,0,1.26843603319,,,2020_Mar_04_1508,59.9714442084,duckFrog,001,12,
frog,ribbitR.wav,-20,landoltCL.png,V2,frogFront.png,duckFront.png,Hcong,b,20,landoltCBottom.png,,,,,1,16,96,52,,,b,0,1.53476290233,,,2020_Mar_04_1508,59.9714442084,duckFrog,001,12,
frog,ribbitL.wav,20,landoltCBottom.png,V2,duckFront.png,frogFront.png,Hcong,b,-20,landoltCL.png,,,,,1,17,97,32,,,b,0,0.867554465658,,,2020_Mar_04_1508,59.9714442084,duckFrog,001,12,
frog,wnR.wav,-20,landoltCR.png,V2,frogFront.png,duckFront.png,HcongWN,b,20,landoltCBottom.png,,,,,1,18,98,21,,,b,0,0.900902277965,,,2020_Mar_04_1508,59.9714442084,duckFrog,001,12,
frog,ribbitR.wav,-20,landoltCL.png,V2,frogFront.png,duckFront.png,Hcong,h,20,landoltCTop.png,,,,,1,19,99,60,,,h,0,1.05131236266,,,2020_Mar_04_1508,59.9714442084,duckFrog,001,12,
frog,wnR.wav,20,landoltCTop.png,V2,duckFront.png,frogFront.png,HinCongWN,h,-20,landoltCL.png,,,,,1,20,100,59,,,h,0,1.73494104861,,,2020_Mar_04_1508,59.9714442084,duckFrog,001,12,
frog,wnL.wav,20,landoltCBottom.png,V2,duckFront.png,frogFront.png,HcongWN,b,-20,landoltCR.png,,,,,1,21,101,49,,,b,0,1.13465916694,,,2020_Mar_04_1508,59.9714442084,duckFrog,001,12,
frog,quackL.wav,-20,landoltCL.png,V2,frogFront.png,duckFront.png,HinCong,h,20,landoltCTop.png,,,,,1,22,102,30,,,h,0,1.3846867503,,,2020_Mar_04_1508,59.9714442084,duckFrog,001,12,
frog,quackL.wav,-20,landoltCL.png,V2,frogFront.png,duckFront.png,HinCong,b,20,landoltCBottom.png,,,,,1,23,103,22,,,b,0,0.834450779774,,,2020_Mar_04_1508,59.9714442084,duckFrog,001,12,
frog,ribbitR.wav,-20,landoltCL.png,V2,frogFront.png,duckFront.png,Hcong,h,20,landoltCTop.png,,,,,1,24,104,44,,,h,0,0.917843403557,,,2020_Mar_04_1508,59.9714442084,duckFrog,001,12,
frog,quackR.wav,20,landoltCBottom.png,V2,duckFront.png,frogFront.png,HinCong,b,-20,landoltCL.png,,,,,1,25,105,50,,,b,0,1.30125270566,,,2020_Mar_04_1508,59.9714442084,duckFrog,001,12,
frog,ribbitR.wav,-20,landoltCL.png,V2,frogFront.png,duckFront.png,Hcong,h,20,landoltCTop.png,,,,,1,26,106,28,,,h,0,0.737593448895,,,2020_Mar_04_1508,59.9714442084,duckFrog,001,12,
frog,wnL.wav,-20,landoltCR.png,V2,frogFront.png,duckFront.png,HinCongWN,b,20,landoltCBottom.png,,,,,1,27,107,71,,,b,0,2.35228098728,,,2020_Mar_04_1508,59.9714442084,duckFrog,001,12,
frog,wnL.wav,-20,landoltCR.png,V2,frogFront.png,duckFront.png,HinCongWN,h,20,landoltCTop.png,,,,,1,28,108,47,,,h,0,0.851101592882,,,2020_Mar_04_1508,59.9714442084,duckFrog,001,12,
frog,quackR.wav,20,landoltCBottom.png,V2,duckFront.png,frogFront.png,HinCong,b,-20,landoltCL.png,,,,,1,29,109,66,,,b,0,1.38465559302,,,2020_Mar_04_1508,59.9714442084,duckFrog,001,12,
duck,ribbitR.wav,20,landoltCBottom.png,V2,frogFront.png,duckFront.png,LinCong,b,-20,landoltCR.png,,,,,1,30,110,10,,,b,0,1.33486187248,,,2020_Mar_04_1508,59.9714442084,duckFrog,001,12,
duck,wnR.wav,-20,landoltCL.png,V2,duckFront.png,frogFront.png,LcongWN,h,20,landoltCTop.png,,,,,1,31,111,5,,,h,0,1.38491144922,,,2020_Mar_04_1508,59.9714442084,duckFrog,001,12,
frog,wnR.wav,20,landoltCBottom.png,V2,duckFront.png,frogFront.png,HinCongWN,b,-20,landoltCR.png,,,,,1,32,112,51,,,b,0,1.36797692164,,,2020_Mar_04_1508,59.9714442084,duckFrog,001,12,
frog,wnR.wav,-20,landoltCR.png,V2,frogFront.png,duckFront.png,HcongWN,h,20,landoltCTop.png,,,,,1,33,113,29,,,h,0,0.750791303115,,,2020_Mar_04_1508,59.9714442084,duckFrog,001,12,
frog,wnL.wav,-20,landoltCR.png,V2,frogFront.png,duckFront.png,HinCongWN,b,20,landoltCBottom.png,,,,,1,34,114,39,,,b,0,1.51832579143,,,2020_Mar_04_1508,59.9714442084,duckFrog,001,12,
duck,ribbitL.wav,-20,landoltCR.png,V2,duckFront.png,frogFront.png,LinCong,h,20,landoltCTop.png,,,,,1,35,115,6,,,h,0,0.801312271011,,,2020_Mar_04_1508,59.9714442084,duckFrog,001,12,
frog,ribbitL.wav,20,landoltCBottom.png,V2,duckFront.png,frogFront.png,Hcong,b,-20,landoltCL.png,,,,,1,36,116,64,,,b,0,1.23448120392,,,2020_Mar_04_1508,59.9714442084,duckFrog,001,12,
frog,wnL.wav,-20,landoltCR.png,V2,frogFront.png,duckFront.png,HinCongWN,h,20,landoltCTop.png,,,,,1,37,117,31,,,h,0,1.31788739029,,,2020_Mar_04_1508,59.9714442084,duckFrog,001,12,
duck,wnL.wav,-20,landoltCL.png,V2,duckFront.png,frogFront.png,LinCongWN,h,20,landoltCTop.png,,,,,1,38,118,7,,,h,0,1.11776202809,,,2020_Mar_04_1508,59.9714442084,duckFrog,001,12,
duck,wnR.wav,20,landoltCTop.png,V2,frogFront.png,duckFront.png,LinCongWN,h,-20,landoltCR.png,,,,,1,39,119,3,,,h,0,1.40135112597,,,2020_Mar_04_1508,59.9714442084,duckFrog,001,12,
frog,wnR.wav,-20,landoltCR.png,V2,frogFront.png,duckFront.png,HcongWN,b,20,landoltCBottom.png,,,,,1,40,120,53,,,b,0,1.08444500651,,,2020_Mar_04_1508,59.9714442084,duckFrog,001,12,
duck,ribbitL.wav,-20,landoltCR.png,V2,duckFront.png,frogFront.png,LinCong,b,20,landoltCBottom.png,,,,,1,41,121,14,,,b,0,0.984600243013,,,2020_Mar_04_1508,59.9714442084,duckFrog,001,12,
frog,wnR.wav,-20,landoltCR.png,V2,frogFront.png,duckFront.png,HcongWN,b,20,landoltCBottom.png,,,,,1,42,122,69,,,b,0,0.834483036713,,,2020_Mar_04_1508,59.9714442084,duckFrog,001,12,
frog,wnR.wav,-20,landoltCR.png,V2,frogFront.png,duckFront.png,HcongWN,h,20,landoltCTop.png,,,,,1,43,123,61,,,h,0,0.784402669262,,,2020_Mar_04_1508,59.9714442084,duckFrog,001,12,
frog,wnR.wav,20,landoltCTop.png,V2,duckFront.png,frogFront.png,HinCongWN,h,-20,landoltCL.png,,,,,1,44,124,43,,,h,0,0.800864705961,,,2020_Mar_04_1508,59.9714442084,duckFrog,001,12,
frog,quackL.wav,-20,landoltCL.png,V2,frogFront.png,duckFront.png,HinCong,h,20,landoltCTop.png,,,,,1,45,125,78,,,h,0,1.40134452796,,,2020_Mar_04_1508,59.9714442084,duckFrog,001,12,
frog,quackR.wav,20,landoltCTop.png,V2,duckFront.png,frogFront.png,HinCong,h,-20,landoltCR.png,,,,,1,46,126,58,,,h,0,1.61823873434,,,2020_Mar_04_1508,59.9714442084,duckFrog,001,12,
frog,ribbitL.wav,20,landoltCBottom.png,V2,duckFront.png,frogFront.png,Hcong,b,-20,landoltCL.png,,,,,1,47,127,48,,,b,0,0.617660308752,,,2020_Mar_04_1508,59.9714442084,duckFrog,001,12,
frog,wnR.wav,-20,landoltCR.png,V2,frogFront.png,duckFront.png,HcongWN,b,20,landoltCBottom.png,,,,,1,48,128,37,,,b,0,0.734145988303,,,2020_Mar_04_1508,59.9714442084,duckFrog,001,12,
frog,wnL.wav,20,landoltCTop.png,V2,duckFront.png,frogFront.png,HcongWN,h,-20,landoltCL.png,,,,,1,49,129,73,,,h,0,1.10071093566,,,2020_Mar_04_1508,59.9714442084,duckFrog,001,12,
frog,quackL.wav,-20,landoltCL.png,V2,frogFront.png,duckFront.png,HinCong,b,20,landoltCBottom.png,,,,,1,50,130,54,,,b,0,1.60150178056,,,2020_Mar_04_1508,59.9714442084,duckFrog,001,12,
frog,wnL.wav,-20,landoltCR.png,V2,frogFront.png,duckFront.png,HinCongWN,b,20,landoltCBottom.png,,,,,1,51,131,55,,,b,0,1.30148033702,,,2020_Mar_04_1508,59.9714442084,duckFrog,001,12,
frog,quackL.wav,-20,landoltCL.png,V2,frogFront.png,duckFront.png,HinCong,b,20,landoltCBottom.png,,,,,1,52,132,70,,,b,0,0.951209910214,,,2020_Mar_04_1508,59.9714442084,duckFrog,001,12,
duck,wnL.wav,20,landoltCTop.png,V2,frogFront.png,duckFront.png,LcongWN,h,-20,landoltCR.png,,,,,1,53,133,1,,,h,0,1.50138576553,,,2020_Mar_04_1508,59.9714442084,duckFrog,001,12,
frog,ribbitR.wav,-20,landoltCL.png,V2,frogFront.png,duckFront.png,Hcong,h,20,landoltCTop.png,,,,,1,54,134,76,,,h,0,2.03512854208,,,2020_Mar_04_1508,59.9714442084,duckFrog,001,12,
frog,wnR.wav,20,landoltCTop.png,V2,duckFront.png,frogFront.png,HinCongWN,h,-20,landoltCL.png,,,,,1,55,135,27,,,h,0,1.15115529337,,,2020_Mar_04_1508,59.9714442084,duckFrog,001,12,
frog,quackR.wav,20,landoltCTop.png,V2,duckFront.png,frogFront.png,HinCong,h,-20,landoltCR.png,,,,,1,56,136,42,,,h,0,0.784386907326,,,2020_Mar_04_1508,59.9714442084,duckFrog,001,12,
frog,quackR.wav,20,landoltCBottom.png,V2,duckFront.png,frogFront.png,HinCong,b,-20,landoltCL.png,,,,,1,57,137,18,,,b,0,1.51689988803,,,2020_Mar_04_1508,59.9714442084,duckFrog,001,12,
frog,wnR.wav,-20,landoltCR.png,V2,frogFront.png,duckFront.png,HcongWN,h,20,landoltCTop.png,,,,,1,58,138,77,,,h,0,1.13445719448,,,2020_Mar_04_1508,59.9714442084,duckFrog,001,12,
frog,wnL.wav,20,landoltCBottom.png,V2,duckFront.png,frogFront.png,HcongWN,b,-20,landoltCR.png,,,,,1,59,139,33,,,b,0,0.884046193387,,,2020_Mar_04_1508,59.9714442084,duckFrog,001,12,
frog,wnL.wav,-20,landoltCR.png,V2,frogFront.png,duckFront.png,HinCongWN,b,20,landoltCBottom.png,,,,,1,60,140,23,,,b,0,1.00102159198,,,2020_Mar_04_1508,59.9714442084,duckFrog,001,12,
frog,quackR.wav,20,landoltCBottom.png,V2,duckFront.png,frogFront.png,HinCong,b,-20,landoltCL.png,,,,,1,61,141,34,,,b,0,1.4513889729,,,2020_Mar_04_1508,59.9714442084,duckFrog,001,12,
frog,quackL.wav,-20,landoltCL.png,V2,frogFront.png,duckFront.png,HinCong,h,20,landoltCTop.png,,,,,1,62,142,62,,,h,0,0.800904660602,,,2020_Mar_04_1508,59.9714442084,duckFrog,001,12,
frog,wnR.wav,20,landoltCBottom.png,V2,duckFront.png,frogFront.png,HinCongWN,b,-20,landoltCR.png,,,,,1,63,143,67,,,b,0,1.28459236206,,,2020_Mar_04_1508,59.9714442084,duckFrog,001,12,
duck,wnL.wav,20,landoltCBottom.png,V2,frogFront.png,duckFront.png,LcongWN,b,-20,landoltCL.png,,,,,1,64,144,9,,,b,0,1.38485463301,,,2020_Mar_04_1508,59.9714442084,duckFrog,001,12,
frog,quackR.wav,20,landoltCTop.png,V2,duckFront.png,frogFront.png,HinCong,h,-20,landoltCR.png,,,,,1,65,145,26,,,h,0,1.83525060528,,,2020_Mar_04_1508,59.9714442084,duckFrog,001,12,
frog,wnR.wav,-20,landoltCR.png,V2,frogFront.png,duckFront.png,HcongWN,h,20,landoltCTop.png,,,,,1,66,146,45,,,h,0,0.867537237529,,,2020_Mar_04_1508,59.9714442084,duckFrog,001,12,
frog,quackL.wav,-20,landoltCL.png,V2,frogFront.png,duckFront.png,HinCong,b,20,landoltCBottom.png,,,,,1,67,147,38,,,b,0,0.784391672583,,,2020_Mar_04_1508,59.9714442084,duckFrog,001,12,
frog,ribbitL.wav,20,landoltCTop.png,V2,duckFront.png,frogFront.png,Hcong,h,-20,landoltCR.png,,,,,1,68,148,40,,,h,0,1.50146934032,,,2020_Mar_04_1508,59.9714442084,duckFrog,001,12,
frog,quackL.wav,-20,landoltCL.png,V2,frogFront.png,duckFront.png,HinCong,h,20,landoltCTop.png,,,,,1,69,149,46,,,h,0,1.35133343964,,,2020_Mar_04_1508,59.9714442084,duckFrog,001,12,
duck,wnR.wav,-20,landoltCL.png,V2,duckFront.png,frogFront.png,LcongWN,b,20,landoltCBottom.png,,,,,1,70,150,13,,,b,0,1.36812794275,,,2020_Mar_04_1508,59.9714442084,duckFrog,001,12,
frog,wnL.wav,20,landoltCBottom.png,V2,duckFront.png,frogFront.png,HcongWN,b,-20,landoltCR.png,,,,,1,71,151,65,,,b,0,0.8508974211,,,2020_Mar_04_1508,59.9714442084,duckFrog,001,12,
frog,ribbitL.wav,20,landoltCTop.png,V2,duckFront.png,frogFront.png,Hcong,h,-20,landoltCR.png,,,,,1,72,152,56,,,h,0,0.951255729713,,,2020_Mar_04_1508,59.9714442084,duckFrog,001,12,
frog,ribbitR.wav,-20,landoltCL.png,V2,frogFront.png,duckFront.png,Hcong,b,20,landoltCBottom.png,,,,,1,73,153,20,,,b,0,0.884267593327,,,2020_Mar_04_1508,59.9714442084,duckFrog,001,12,
frog,ribbitL.wav,20,landoltCTop.png,V2,duckFront.png,frogFront.png,Hcong,h,-20,landoltCR.png,,,,,1,74,154,72,,,h,0,0.967663516116,,,2020_Mar_04_1508,59.9714442084,duckFrog,001,12,
duck,ribbitR.wav,20,landoltCTop.png,V2,frogFront.png,duckFront.png,LinCong,h,-20,landoltCL.png,,,,,1,75,155,2,,,h,0,1.3348600397,,,2020_Mar_04_1508,59.9714442084,duckFrog,001,12,
duck,quackL.wav,20,landoltCTop.png,V2,frogFront.png,duckFront.png,Lcong,h,-20,landoltCL.png,,,,,1,76,156,0,,,h,0,0.901231078838,,,2020_Mar_04_1508,59.9714442084,duckFrog,001,12,
duck,quackL.wav,20,landoltCBottom.png,V2,frogFront.png,duckFront.png,Lcong,b,-20,landoltCR.png,,,,,1,77,157,8,,,b,0,2.16884126101,,,2020_Mar_04_1508,59.9714442084,duckFrog,001,12,
frog,wnR.wav,20,landoltCTop.png,V2,duckFront.png,frogFront.png,HinCongWN,h,-20,landoltCL.png,,,,,1,78,158,75,,,h,0,1.41826109428,,,2020_Mar_04_1508,59.9714442084,duckFrog,001,12,
frog,wnR.wav,20,landoltCBottom.png,V2,duckFront.png,frogFront.png,HinCongWN,b,-20,landoltCR.png,,,,,1,79,159,35,,,b,0,0.867876668519,,,2020_Mar_04_1508,59.9714442084,duckFrog,001,12,
frog,wnL.wav,-20,landoltCR.png,V2,frogFront.png,duckFront.png,HinCongWN,b,20,landoltCBottom.png,,,,,2,0,160,39,,,h,0,1.30127873112,,,2020_Mar_04_1508,59.9714442084,duckFrog,001,12,
frog,wnR.wav,-20,landoltCR.png,V2,frogFront.png,duckFront.png,HcongWN,b,20,landoltCBottom.png,,,,,2,1,161,37,,,b,0,0.867834147997,,,2020_Mar_04_1508,59.9714442084,duckFrog,001,12,
frog,ribbitL.wav,20,landoltCTop.png,V2,duckFront.png,frogFront.png,Hcong,h,-20,landoltCR.png,,,,,2,2,162,24,,,h,0,1.21800193909,,,2020_Mar_04_1508,59.9714442084,duckFrog,001,12,
frog,ribbitR.wav,-20,landoltCL.png,V2,frogFront.png,duckFront.png,Hcong,b,20,landoltCBottom.png,,,,,2,3,163,36,,,b,0,1.13448908488,,,2020_Mar_04_1508,59.9714442084,duckFrog,001,12,
frog,ribbitL.wav,20,landoltCTop.png,V2,duckFront.png,frogFront.png,Hcong,h,-20,landoltCR.png,,,,,2,4,164,40,,,h,0,0.917667823145,,,2020_Mar_04_1508,59.9714442084,duckFrog,001,12,
frog,wnL.wav,20,landoltCTop.png,V2,duckFront.png,frogFront.png,HcongWN,h,-20,landoltCL.png,,,,,2,5,165,25,,,h,0,1.06793898306,,,2020_Mar_04_1508,59.9714442084,duckFrog,001,12,
frog,wnR.wav,20,landoltCTop.png,V2,duckFront.png,frogFront.png,HinCongWN,h,-20,landoltCL.png,,,,,2,6,166,27,,,h,0,1.43489174682,,,2020_Mar_04_1508,59.9714442084,duckFrog,001,12,
frog,quackL.wav,-20,landoltCL.png,V2,frogFront.png,duckFront.png,HinCong,b,20,landoltCBottom.png,,,,,2,7,167,38,,,b,0,1.73494471418,,,2020_Mar_04_1508,59.9714442084,duckFrog,001,12,
frog,ribbitR.wav,-20,landoltCL.png,V2,frogFront.png,duckFront.png,Hcong,b,20,landoltCBottom.png,,,,,2,8,168,52,,,b,0,0.767758820701,,,2020_Mar_04_1508,59.9714442084,duckFrog,001,12,
duck,wnL.wav,20,landoltCBottom.png,V2,frogFront.png,duckFront.png,LcongWN,b,-20,landoltCL.png,,,,,2,9,169,9,,,b,0,1.30130695595,,,2020_Mar_04_1508,59.9714442084,duckFrog,001,12,
frog,wnL.wav,-20,landoltCR.png,V2,frogFront.png,duckFront.png,HinCongWN,h,20,landoltCTop.png,,,,,2,10,170,79,,,h,0,0.617403352895,,,2020_Mar_04_1508,59.9714442084,duckFrog,001,12,
frog,ribbitR.wav,-20,landoltCL.png,V2,frogFront.png,duckFront.png,Hcong,h,20,landoltCTop.png,,,,,2,11,171,44,,,h,0,1.45159424434,,,2020_Mar_04_1508,59.9714442084,duckFrog,001,12,
frog,ribbitR.wav,-20,landoltCL.png,V2,frogFront.png,duckFront.png,Hcong,h,20,landoltCTop.png,,,,,2,12,172,60,,,h,0,0.834451879433,,,2020_Mar_04_1508,59.9714442084,duckFrog,001,12,
duck,wnR.wav,20,landoltCTop.png,V2,frogFront.png,duckFront.png,LinCongWN,h,-20,landoltCR.png,,,,,2,13,173,3,,,h,0,1.51807799947,,,2020_Mar_04_1508,59.9714442084,duckFrog,001,12,
frog,wnL.wav,-20,landoltCR.png,V2,frogFront.png,duckFront.png,HinCongWN,h,20,landoltCTop.png,,,,,2,14,174,63,,,h,0,1.5681444378,,,2020_Mar_04_1508,59.9714442084,duckFrog,001,12,
frog,wnL.wav,20,landoltCTop.png,V2,duckFront.png,frogFront.png,HcongWN,h,-20,landoltCL.png,,,,,2,15,175,57,,,h,0,0.800870570849,,,2020_Mar_04_1508,59.9714442084,duckFrog,001,12,
frog,wnR.wav,-20,landoltCR.png,V2,frogFront.png,duckFront.png,HcongWN,h,20,landoltCTop.png,,,,,2,16,176,77,,,h,0,0.467294577364,,,2020_Mar_04_1508,59.9714442084,duckFrog,001,12,
frog,quackR.wav,20,landoltCBottom.png,V2,duckFront.png,frogFront.png,HinCong,b,-20,landoltCL.png,,,,,2,17,177,18,,,b,0,1.65151066953,,,2020_Mar_04_1508,59.9714442084,duckFrog,001,12,
frog,wnL.wav,20,landoltCTop.png,V2,duckFront.png,frogFront.png,HcongWN,h,-20,landoltCL.png,,,,,2,18,178,73,,,h,0,1.35155337333,,,2020_Mar_04_1508,59.9714442084,duckFrog,001,12,
duck,wnL.wav,20,landoltCTop.png,V2,frogFront.png,duckFront.png,LcongWN,h,-20,landoltCR.png,,,,,2,19,179,1,,,h,0,0.817742783896,,,2020_Mar_04_1508,59.9714442084,duckFrog,001,12,
frog,wnL.wav,20,landoltCBottom.png,V2,duckFront.png,frogFront.png,HcongWN,b,-20,landoltCR.png,,,,,2,20,180,49,,,b,0,1.80190865786,,,2020_Mar_04_1508,59.9714442084,duckFrog,001,12,
frog,quackL.wav,-20,landoltCL.png,V2,frogFront.png,duckFront.png,HinCong,h,20,landoltCTop.png,,,,,2,21,181,46,,,h,0,1.35124070093,,,2020_Mar_04_1508,59.9714442084,duckFrog,001,12,
frog,wnR.wav,20,landoltCBottom.png,V2,duckFront.png,frogFront.png,HinCongWN,b,-20,landoltCR.png,,,,,2,22,182,19,,,b,0,2.20196803997,,,2020_Mar_04_1508,59.9714442084,duckFrog,001,12,
frog,wnR.wav,20,landoltCBottom.png,V2,duckFront.png,frogFront.png,HinCongWN,b,-20,landoltCR.png,,,,,2,23,183,35,,,b,0,1.91867805191,,,2020_Mar_04_1508,59.9714442084,duckFrog,001,12,
frog,wnL.wav,-20,landoltCR.png,V2,frogFront.png,duckFront.png,HinCongWN,h,20,landoltCTop.png,,,,,2,24,184,47,,,h,0,1.26789059766,,,2020_Mar_04_1508,59.9714442084,duckFrog,001,12,
frog,ribbitL.wav,20,landoltCBottom.png,V2,duckFront.png,frogFront.png,Hcong,b,-20,landoltCL.png,,,,,2,25,185,64,,,b,0,2.00181152049,,,2020_Mar_04_1508,59.9714442084,duckFrog,001,12,
duck,ribbitL.wav,-20,landoltCR.png,V2,duckFront.png,frogFront.png,LinCong,h,20,landoltCTop.png,,,,,2,26,186,6,,,h,0,0.950968716264,,,2020_Mar_04_1508,59.9714442084,duckFrog,001,12,
frog,wnR.wav,20,landoltCBottom.png,V2,duckFront.png,frogFront.png,HinCongWN,b,-20,landoltCR.png,,,,,2,27,187,67,,,b,0,1.78498219454,,,2020_Mar_04_1508,59.9714442084,duckFrog,001,12,
frog,quackR.wav,20,landoltCTop.png,V2,duckFront.png,frogFront.png,HinCong,h,-20,landoltCR.png,,,,,2,28,188,74,,,b,0,2.2522617431,,,2020_Mar_04_1508,59.9714442084,duckFrog,001,12,
frog,ribbitR.wav,-20,landoltCL.png,V2,frogFront.png,duckFront.png,Hcong,b,20,landoltCBottom.png,,,,,2,29,189,68,,,b,0,0.700809539267,,,2020_Mar_04_1508,59.9714442084,duckFrog,001,12,
duck,ribbitL.wav,-20,landoltCR.png,V2,duckFront.png,frogFront.png,LinCong,b,20,landoltCBottom.png,,,,,2,30,190,14,,,b,0,1.40154650042,,,2020_Mar_04_1508,59.9714442084,duckFrog,001,12,
frog,wnL.wav,-20,landoltCR.png,V2,frogFront.png,duckFront.png,HinCongWN,b,20,landoltCBottom.png,,,,,2,31,191,55,,,b,0,1.10132968242,,,2020_Mar_04_1508,59.9714442084,duckFrog,001,12,
duck,quackR.wav,-20,landoltCR.png,V2,duckFront.png,frogFront.png,Lcong,h,20,landoltCTop.png,,,,,2,32,192,4,,,h,0,1.46790672612,,,2020_Mar_04_1508,59.9714442084,duckFrog,001,12,
frog,quackL.wav,-20,landoltCL.png,V2,frogFront.png,duckFront.png,HinCong,h,20,landoltCTop.png,,,,,2,33,193,78,,,h,0,1.35140528463,,,2020_Mar_04_1508,59.9714442084,duckFrog,001,12,
frog,wnL.wav,20,landoltCBottom.png,V2,duckFront.png,frogFront.png,HcongWN,b,-20,landoltCR.png,,,,,2,34,194,17,,,b,0,1.7516464786,,,2020_Mar_04_1508,59.9714442084,duckFrog,001,12,
duck,quackR.wav,-20,landoltCR.png,V2,duckFront.png,frogFront.png,Lcong,b,20,landoltCBottom.png,,,,,2,35,195,12,,,b,0,1.35127698997,,,2020_Mar_04_1508,59.9714442084,duckFrog,001,12,
duck,wnL.wav,-20,landoltCL.png,V2,duckFront.png,frogFront.png,LinCongWN,h,20,landoltCTop.png,,,,,2,36,196,7,,,h,0,1.61841688064,,,2020_Mar_04_1508,59.9714442084,duckFrog,001,12,
frog,wnL.wav,20,landoltCBottom.png,V2,duckFront.png,frogFront.png,HcongWN,b,-20,landoltCR.png,,,,,2,37,197,33,,,b,0,1.53476803412,,,2020_Mar_04_1508,59.9714442084,duckFrog,001,12,
frog,wnR.wav,-20,landoltCR.png,V2,frogFront.png,duckFront.png,HcongWN,b,20,landoltCBottom.png,,,,,2,38,198,53,,,b,0,0.867581957369,,,2020_Mar_04_1508,59.9714442084,duckFrog,001,12,
frog,wnR.wav,20,landoltCBottom.png,V2,duckFront.png,frogFront.png,HinCongWN,b,-20,landoltCR.png,,,,,2,39,199,51,,,b,0,1.05106200482,,,2020_Mar_04_1508,59.9714442084,duckFrog,001,12,
frog,wnL.wav,-20,landoltCR.png,V2,frogFront.png,duckFront.png,HinCongWN,b,20,landoltCBottom.png,,,,,2,40,200,71,,,b,0,0.900876985601,,,2020_Mar_04_1508,59.9714442084,duckFrog,001,12,
frog,ribbitL.wav,20,landoltCTop.png,V2,duckFront.png,frogFront.png,Hcong,h,-20,landoltCR.png,,,,,2,41,201,72,,,h,0,1.72008342817,,,2020_Mar_04_1508,59.9714442084,duckFrog,001,12,
frog,ribbitL.wav,20,landoltCBottom.png,V2,duckFront.png,frogFront.png,Hcong,b,-20,landoltCL.png,,,,,2,42,202,32,,,b,0,0.867801891058,,,2020_Mar_04_1508,59.9714442084,duckFrog,001,12,
frog,ribbitR.wav,-20,landoltCL.png,V2,frogFront.png,duckFront.png,Hcong,h,20,landoltCTop.png,,,,,2,43,203,76,,,h,0,0.934317170031,,,2020_Mar_04_1508,59.9714442084,duckFrog,001,12,
frog,wnL.wav,-20,landoltCR.png,V2,frogFront.png,duckFront.png,HinCongWN,h,20,landoltCTop.png,,,,,2,44,204,31,,,h,0,1.46826815046,,,2020_Mar_04_1508,59.9714442084,duckFrog,001,12,
duck,wnR.wav,20,landoltCBottom.png,V2,frogFront.png,duckFront.png,LinCongWN,b,-20,landoltCL.png,,,,,2,45,205,11,,,b,0,1.31787822637,,,2020_Mar_04_1508,59.9714442084,duckFrog,001,12,
frog,quackR.wav,20,landoltCTop.png,V2,duckFront.png,frogFront.png,HinCong,h,-20,landoltCR.png,,,,,2,46,206,26,,,h,0,1.51830929643,,,2020_Mar_04_1508,59.9714442084,duckFrog,001,12,
frog,wnL.wav,20,landoltCBottom.png,V2,duckFront.png,frogFront.png,HcongWN,b,-20,landoltCR.png,,,,,2,47,207,65,,,b,0,1.05126727623,,,2020_Mar_04_1508,59.9714442084,duckFrog,001,12,
duck,wnR.wav,-20,landoltCL.png,V2,duckFront.png,frogFront.png,LcongWN,h,20,landoltCTop.png,,,,,2,48,208,5,,,h,0,1.38465632612,,,2020_Mar_04_1508,59.9714442084,duckFrog,001,12,
frog,quackL.wav,-20,landoltCL.png,V2,frogFront.png,duckFront.png,HinCong,b,20,landoltCBottom.png,,,,,2,49,209,22,,,b,0,1.30166801374,,,2020_Mar_04_1508,59.9714442084,duckFrog,001,12,
frog,quackL.wav,-20,landoltCL.png,V2,frogFront.png,duckFront.png,HinCong,h,20,landoltCTop.png,,,,,2,50,210,62,,,h,0,1.05123978455,,,2020_Mar_04_1508,59.9714442084,duckFrog,001,12,
frog,wnL.wav,-20,landoltCR.png,V2,frogFront.png,duckFront.png,HinCongWN,b,20,landoltCBottom.png,,,,,2,51,211,23,,,b,0,1.16765838431,,,2020_Mar_04_1508,59.9714442084,duckFrog,001,12,
duck,ribbitR.wav,20,landoltCTop.png,V2,frogFront.png,duckFront.png,LinCong,h,-20,landoltCL.png,,,,,2,52,212,2,,,h,0,1.61820281186,,,2020_Mar_04_1508,59.9714442084,duckFrog,001,12,
frog,wnR.wav,-20,landoltCR.png,V2,frogFront.png,duckFront.png,HcongWN,b,20,landoltCBottom.png,,,,,2,53,213,69,,,b,0,1.16795052961,,,2020_Mar_04_1508,59.9714442084,duckFrog,001,12,
frog,ribbitR.wav,-20,landoltCL.png,V2,frogFront.png,duckFront.png,Hcong,h,20,landoltCTop.png,,,,,2,54,214,28,,,h,0,1.45161000625,,,2020_Mar_04_1508,59.9714442084,duckFrog,001,12,
frog,wnR.wav,-20,landoltCR.png,V2,frogFront.png,duckFront.png,HcongWN,h,20,landoltCTop.png,,,,,2,55,215,61,,,h,0,1.3181498445,,,2020_Mar_04_1508,59.9714442084,duckFrog,001,12,
frog,quackL.wav,-20,landoltCL.png,V2,frogFront.png,duckFront.png,HinCong,b,20,landoltCBottom.png,,,,,2,56,216,70,,,b,0,0.984529131121,,,2020_Mar_04_1508,59.9714442084,duckFrog,001,12,
duck,quackL.wav,20,landoltCBottom.png,V2,frogFront.png,duckFront.png,Lcong,b,-20,landoltCR.png,,,,,2,57,217,8,,,b,0,1.50118929142,,,2020_Mar_04_1508,59.9714442084,duckFrog,001,12,
duck,wnL.wav,-20,landoltCL.png,V2,duckFront.png,frogFront.png,LinCongWN,b,20,landoltCBottom.png,,,,,2,58,218,15,,,h,0,1.16786328921,,,2020_Mar_04_1508,59.9714442084,duckFrog,001,12,
frog,quackR.wav,20,landoltCTop.png,V2,duckFront.png,frogFront.png,HinCong,h,-20,landoltCR.png,,,,,2,59,219,58,,,h,0,1.80129614254,,,2020_Mar_04_1508,59.9714442084,duckFrog,001,12,
frog,ribbitL.wav,20,landoltCBottom.png,V2,duckFront.png,frogFront.png,Hcong,b,-20,landoltCL.png,,,,,2,60,220,48,,,b,0,0.784427961626,,,2020_Mar_04_1508,59.9714442084,duckFrog,001,12,
frog,wnL.wav,20,landoltCTop.png,V2,duckFront.png,frogFront.png,HcongWN,h,-20,landoltCL.png,,,,,2,61,221,41,,,h,0,0.968095685821,,,2020_Mar_04_1508,59.9714442084,duckFrog,001,12,
frog,quackL.wav,-20,landoltCL.png,V2,frogFront.png,duckFront.png,HinCong,b,20,landoltCBottom.png,,,,,2,62,222,54,,,b,0,0.98435245108,,,2020_Mar_04_1508,59.9714442084,duckFrog,001,12,
duck,wnR.wav,-20,landoltCL.png,V2,duckFront.png,frogFront.png,LcongWN,b,20,landoltCBottom.png,,,,,2,63,223,13,,,b,0,1.05125224745,,,2020_Mar_04_1508,59.9714442084,duckFrog,001,12,
frog,quackR.wav,20,landoltCTop.png,V2,duckFront.png,frogFront.png,HinCong,h,-20,landoltCR.png,,,,,2,64,224,42,,,h,0,1.68484381959,,,2020_Mar_04_1508,59.9714442084,duckFrog,001,12,
duck,quackL.wav,20,landoltCTop.png,V2,frogFront.png,duckFront.png,Lcong,h,-20,landoltCL.png,,,,,2,65,225,0,,,h,0,1.43496579115,,,2020_Mar_04_1508,59.9714442084,duckFrog,001,12,
frog,ribbitR.wav,-20,landoltCL.png,V2,frogFront.png,duckFront.png,Hcong,b,20,landoltCBottom.png,,,,,2,66,226,20,,,b,0,0.900899345521,,,2020_Mar_04_1508,59.9714442084,duckFrog,001,12,
frog,wnR.wav,-20,landoltCR.png,V2,frogFront.png,duckFront.png,HcongWN,h,20,landoltCTop.png,,,,,2,67,227,45,,,h,0,1.03461536346,,,2020_Mar_04_1508,59.9714442084,duckFrog,001,12,
frog,wnR.wav,20,landoltCTop.png,V2,duckFront.png,frogFront.png,HinCongWN,h,-20,landoltCL.png,,,,,2,68,228,75,,,h,0,1.61811777082,,,2020_Mar_04_1508,59.9714442084,duckFrog,001,12,
frog,quackR.wav,20,landoltCBottom.png,V2,duckFront.png,frogFront.png,HinCong,b,-20,landoltCL.png,,,,,2,69,229,50,,,b,0,0.584222690173,,,2020_Mar_04_1508,59.9714442084,duckFrog,001,12,
duck,ribbitR.wav,20,landoltCBottom.png,V2,frogFront.png,duckFront.png,LinCong,b,-20,landoltCR.png,,,,,2,70,230,10,,,b,0,1.51829903285,,,2020_Mar_04_1508,59.9714442084,duckFrog,001,12,
frog,wnR.wav,20,landoltCTop.png,V2,duckFront.png,frogFront.png,HinCongWN,h,-20,landoltCL.png,,,,,2,71,231,43,,,h,0,1.46834072861,,,2020_Mar_04_1508,59.9714442084,duckFrog,001,12,
frog,wnR.wav,-20,landoltCR.png,V2,frogFront.png,duckFront.png,HcongWN,h,20,landoltCTop.png,,,,,2,72,232,29,,,h,0,0.717431027879,,,2020_Mar_04_1508,59.9714442084,duckFrog,001,12,
frog,quackR.wav,20,landoltCBottom.png,V2,duckFront.png,frogFront.png,HinCong,b,-20,landoltCL.png,,,,,2,73,233,66,,,b,0,1.26790599301,,,2020_Mar_04_1508,59.9714442084,duckFrog,001,12,
frog,quackL.wav,-20,landoltCL.png,V2,frogFront.png,duckFront.png,HinCong,h,20,landoltCTop.png,,,,,2,74,234,30,,,h,0,1.334633508,,,2020_Mar_04_1508,59.9714442084,duckFrog,001,12,
frog,ribbitL.wav,20,landoltCBottom.png,V2,duckFront.png,frogFront.png,Hcong,b,-20,landoltCL.png,,,,,2,75,235,16,,,b,0,0.884207844676,,,2020_Mar_04_1508,59.9714442084,duckFrog,001,12,
frog,quackR.wav,20,landoltCBottom.png,V2,duckFront.png,frogFront.png,HinCong,b,-20,landoltCL.png,,,,,2,76,236,34,,,b,0,1.48496148412,,,2020_Mar_04_1508,59.9714442084,duckFrog,001,12,
frog,ribbitL.wav,20,landoltCTop.png,V2,duckFront.png,frogFront.png,Hcong,h,-20,landoltCR.png,,,,,2,77,237,56,,,h,0,1.00125582135,,,2020_Mar_04_1508,59.9714442084,duckFrog,001,12,
frog,wnR.wav,-20,landoltCR.png,V2,frogFront.png,duckFront.png,HcongWN,b,20,landoltCBottom.png,,,,,2,78,238,21,,,b,0,1.05110342565,,,2020_Mar_04_1508,59.9714442084,duckFrog,001,12,
frog,wnR.wav,20,landoltCTop.png,V2,duckFront.png,frogFront.png,HinCongWN,h,-20,landoltCL.png,,,,,2,79,239,59,,,h,0,1.51808972927,,,2020_Mar_04_1508,59.9714442084,duckFrog,001,12,
frog,wnL.wav,20,landoltCBottom.png,V2,duckFront.png,frogFront.png,HcongWN,b,-20,landoltCR.png,,,,,3,0,240,65,,,b,0,1.31817953553,,,2020_Mar_04_1508,59.9714442084,duckFrog,001,12,
frog,ribbitL.wav,20,landoltCBottom.png,V2,duckFront.png,frogFront.png,Hcong,b,-20,landoltCL.png,,,,,3,1,241,64,,,h,0,1.91880011509,,,2020_Mar_04_1508,59.9714442084,duckFrog,001,12,
duck,quackR.wav,-20,landoltCR.png,V2,duckFront.png,frogFront.png,Lcong,b,20,landoltCBottom.png,,,,,3,2,242,12,,,b,0,0.517573984776,,,2020_Mar_04_1508,59.9714442084,duckFrog,001,12,
frog,ribbitL.wav,20,landoltCTop.png,V2,duckFront.png,frogFront.png,Hcong,h,-20,landoltCR.png,,,,,3,3,243,24,,,h,0,1.41795648611,,,2020_Mar_04_1508,59.9714442084,duckFrog,001,12,
frog,wnR.wav,-20,landoltCR.png,V2,frogFront.png,duckFront.png,HcongWN,h,20,landoltCTop.png,,,,,3,4,244,61,,,h,0,0.784199597139,,,2020_Mar_04_1508,59.9714442084,duckFrog,001,12,
frog,wnR.wav,20,landoltCBottom.png,V2,duckFront.png,frogFront.png,HinCongWN,b,-20,landoltCR.png,,,,,3,5,245,51,,,b,0,0.884306814842,,,2020_Mar_04_1508,59.9714442084,duckFrog,001,12,
frog,wnL.wav,-20,landoltCR.png,V2,frogFront.png,duckFront.png,HinCongWN,b,20,landoltCBottom.png,,,,,3,6,246,39,,,b,0,1.33461444709,,,2020_Mar_04_1508,59.9714442084,duckFrog,001,12,
frog,wnR.wav,-20,landoltCR.png,V2,frogFront.png,duckFront.png,HcongWN,b,20,landoltCBottom.png,,,,,3,7,247,69,,,b,0,1.23475135581,,,2020_Mar_04_1508,59.9714442084,duckFrog,001,12,
frog,quackL.wav,-20,landoltCL.png,V2,frogFront.png,duckFront.png,HinCong,h,20,landoltCTop.png,,,,,3,8,248,62,,,h,0,1.65175479592,,,2020_Mar_04_1508,59.9714442084,duckFrog,001,12,
duck,ribbitR.wav,20,landoltCTop.png,V2,frogFront.png,duckFront.png,LinCong,h,-20,landoltCL.png,,,,,3,9,249,2,,,h,0,1.33466943051,,,2020_Mar_04_1508,59.9714442084,duckFrog,001,12,
frog,wnR.wav,20,landoltCBottom.png,V2,duckFront.png,frogFront.png,HinCongWN,b,-20,landoltCR.png,,,,,3,10,250,19,,,b,0,1.6016909235,,,2020_Mar_04_1508,59.9714442084,duckFrog,001,12,
duck,ribbitL.wav,-20,landoltCR.png,V2,duckFront.png,frogFront.png,LinCong,h,20,landoltCTop.png,,,,,3,11,251,6,,,h,0,0.967685876065,,,2020_Mar_04_1508,59.9714442084,duckFrog,001,12,
frog,ribbitL.wav,20,landoltCBottom.png,V2,duckFront.png,frogFront.png,Hcong,b,-20,landoltCL.png,,,,,3,12,252,16,,,b,0,0.867559597449,,,2020_Mar_04_1508,59.9714442084,duckFrog,001,12,
frog,ribbitR.wav,-20,landoltCL.png,V2,frogFront.png,duckFront.png,Hcong,h,20,landoltCTop.png,,,,,3,13,253,28,,,h,0,1.06770512025,,,2020_Mar_04_1508,59.9714442084,duckFrog,001,12,
frog,ribbitR.wav,-20,landoltCL.png,V2,frogFront.png,duckFront.png,Hcong,b,20,landoltCBottom.png,,,,,3,14,254,36,,,b,0,0.834449313523,,,2020_Mar_04_1508,59.9714442084,duckFrog,001,12,
frog,quackR.wav,20,landoltCBottom.png,V2,duckFront.png,frogFront.png,HinCong,b,-20,landoltCL.png,,,,,3,15,255,34,,,b,0,1.33455139943,,,2020_Mar_04_1508,59.9714442084,duckFrog,001,12,
frog,wnR.wav,20,landoltCTop.png,V2,duckFront.png,frogFront.png,HinCongWN,h,-20,landoltCL.png,,,,,3,16,256,59,,,h,0,1.31818063519,,,2020_Mar_04_1508,59.9714442084,duckFrog,001,12,
frog,ribbitR.wav,-20,landoltCL.png,V2,frogFront.png,duckFront.png,Hcong,h,20,landoltCTop.png,,,,,3,17,257,60,,,h,0,0.950974947715,,,2020_Mar_04_1508,59.9714442084,duckFrog,001,12,
frog,quackL.wav,-20,landoltCL.png,V2,frogFront.png,duckFront.png,HinCong,b,20,landoltCBottom.png,,,,,3,18,258,22,,,b,0,1.10129229369,,,2020_Mar_04_1508,59.9714442084,duckFrog,001,12,
frog,ribbitL.wav,20,landoltCTop.png,V2,duckFront.png,frogFront.png,Hcong,h,-20,landoltCR.png,,,,,3,19,259,56,,,h,0,1.58476885885,,,2020_Mar_04_1508,59.9714442084,duckFrog,001,12,
frog,quackR.wav,20,landoltCBottom.png,V2,duckFront.png,frogFront.png,HinCong,b,-20,landoltCL.png,,,,,3,20,260,50,,,b,0,1.35690289378,,,2020_Mar_04_1508,59.9714442084,duckFrog,001,12,
frog,ribbitR.wav,-20,landoltCL.png,V2,frogFront.png,duckFront.png,Hcong,h,20,landoltCTop.png,,,,,3,21,261,44,,,h,0,0.900951763062,,,2020_Mar_04_1508,59.9714442084,duckFrog,001,12,
frog,wnR.wav,-20,landoltCR.png,V2,frogFront.png,duckFront.png,HcongWN,h,20,landoltCTop.png,,,,,3,22,262,29,,,h,0,1.05132299277,,,2020_Mar_04_1508,59.9714442084,duckFrog,001,12,
frog,quackR.wav,20,landoltCTop.png,V2,duckFront.png,frogFront.png,HinCong,h,-20,landoltCR.png,,,,,3,23,263,58,,,h,0,1.30127323279,,,2020_Mar_04_1508,59.9714442084,duckFrog,001,12,
frog,wnL.wav,20,landoltCBottom.png,V2,duckFront.png,frogFront.png,HcongWN,b,-20,landoltCR.png,,,,,3,24,264,33,,,b,0,1.63508602156,,,2020_Mar_04_1508,59.9714442084,duckFrog,001,12,
frog,wnR.wav,20,landoltCTop.png,V2,duckFront.png,frogFront.png,HinCongWN,h,-20,landoltCL.png,,,,,3,25,265,75,,,h,0,1.5350187585,,,2020_Mar_04_1508,59.9714442084,duckFrog,001,12,
duck,wnR.wav,-20,landoltCL.png,V2,duckFront.png,frogFront.png,LcongWN,h,20,landoltCTop.png,,,,,3,26,266,5,,,h,0,0.967691740923,,,2020_Mar_04_1508,59.9714442084,duckFrog,001,12,
duck,ribbitR.wav,20,landoltCBottom.png,V2,frogFront.png,duckFront.png,LinCong,b,-20,landoltCR.png,,,,,3,27,267,10,,,b,0,1.50141289068,,,2020_Mar_04_1508,59.9714442084,duckFrog,001,12,
frog,wnL.wav,-20,landoltCR.png,V2,frogFront.png,duckFront.png,HinCongWN,b,20,landoltCBottom.png,,,,,3,28,268,55,,,h,0,1.28450732105,,,2020_Mar_04_1508,59.9714442084,duckFrog,001,12,
frog,wnR.wav,-20,landoltCR.png,V2,frogFront.png,duckFront.png,HcongWN,b,20,landoltCBottom.png,,,,,3,29,269,37,,,b,0,0.767745991267,,,2020_Mar_04_1508,59.9714442084,duckFrog,001,12,
frog,quackL.wav,-20,landoltCL.png,V2,frogFront.png,duckFront.png,HinCong,h,20,landoltCTop.png,,,,,3,30,270,78,,,h,0,0.96787172,,,2020_Mar_04_1508,59.9714442084,duckFrog,001,12,
frog,quackR.wav,20,landoltCBottom.png,V2,duckFront.png,frogFront.png,HinCong,b,-20,landoltCL.png,,,,,3,31,271,66,,,b,0,1.18446021859,,,2020_Mar_04_1508,59.9714442084,duckFrog,001,12,
frog,ribbitR.wav,-20,landoltCL.png,V2,frogFront.png,duckFront.png,Hcong,b,20,landoltCBottom.png,,,,,3,32,272,52,,,b,0,0.967671946913,,,2020_Mar_04_1508,59.9714442084,duckFrog,001,12,
frog,wnR.wav,-20,landoltCR.png,V2,frogFront.png,duckFront.png,HcongWN,h,20,landoltCTop.png,,,,,3,33,273,77,,,h,0,0.834452612529,,,2020_Mar_04_1508,59.9714442084,duckFrog,001,12,
duck,wnL.wav,-20,landoltCL.png,V2,duckFront.png,frogFront.png,LinCongWN,b,20,landoltCBottom.png,,,,,3,34,274,15,,,b,0,1.23477444885,,,2020_Mar_04_1508,59.9714442084,duckFrog,001,12,
frog,wnL.wav,-20,landoltCR.png,V2,frogFront.png,duckFront.png,HinCongWN,h,20,landoltCTop.png,,,,,3,35,275,79,,,h,0,1.26812116147,,,2020_Mar_04_1508,59.9714442084,duckFrog,001,12,
frog,wnL.wav,20,landoltCTop.png,V2,duckFront.png,frogFront.png,HcongWN,h,-20,landoltCL.png,,,,,3,36,276,57,,,h,0,1.40137495214,,,2020_Mar_04_1508,59.9714442084,duckFrog,001,12,
frog,wnR.wav,-20,landoltCR.png,V2,frogFront.png,duckFront.png,HcongWN,b,20,landoltCBottom.png,,,,,3,37,277,21,,,b,0,1.03439982844,,,2020_Mar_04_1508,59.9714442084,duckFrog,001,12,
frog,wnL.wav,-20,landoltCR.png,V2,frogFront.png,duckFront.png,HinCongWN,b,20,landoltCBottom.png,,,,,3,38,278,71,,,b,0,1.53501252705,,,2020_Mar_04_1508,59.9714442084,duckFrog,001,12,
frog,wnL.wav,20,landoltCBottom.png,V2,duckFront.png,frogFront.png,HcongWN,b,-20,landoltCR.png,,,,,3,39,279,17,,,b,0,0.95099180931,,,2020_Mar_04_1508,59.9714442084,duckFrog,001,12,
frog,wnL.wav,-20,landoltCR.png,V2,frogFront.png,duckFront.png,HinCongWN,h,20,landoltCTop.png,,,,,3,40,280,47,,,h,0,0.95100793778,,,2020_Mar_04_1508,59.9714442084,duckFrog,001,12,
frog,quackR.wav,20,landoltCTop.png,V2,duckFront.png,frogFront.png,HinCong,h,-20,landoltCR.png,,,,,3,41,281,26,,,h,0,1.98545431884,,,2020_Mar_04_1508,59.9714442084,duckFrog,001,12,
duck,wnR.wav,20,landoltCBottom.png,V2,frogFront.png,duckFront.png,LinCongWN,b,-20,landoltCL.png,,,,,3,42,282,11,,,b,0,1.13470132087,,,2020_Mar_04_1508,59.9714442084,duckFrog,001,12,
frog,quackR.wav,20,landoltCBottom.png,V2,duckFront.png,frogFront.png,HinCong,b,-20,landoltCL.png,,,,,3,43,283,18,,,b,0,1.33487066982,,,2020_Mar_04_1508,59.9714442084,duckFrog,001,12,
duck,quackL.wav,20,landoltCTop.png,V2,frogFront.png,duckFront.png,Lcong,h,-20,landoltCL.png,,,,,3,44,284,0,,,h,0,0.901202120876,,,2020_Mar_04_1508,59.9714442084,duckFrog,001,12,
frog,ribbitL.wav,20,landoltCBottom.png,V2,duckFront.png,frogFront.png,Hcong,b,-20,landoltCL.png,,,,,3,45,285,32,,,b,0,0.751294218149,,,2020_Mar_04_1508,59.9714442084,duckFrog,001,12,
frog,wnR.wav,20,landoltCTop.png,V2,duckFront.png,frogFront.png,HinCongWN,h,-20,landoltCL.png,,,,,3,46,286,27,,,h,0,1.41821857376,,,2020_Mar_04_1508,59.9714442084,duckFrog,001,12,
frog,quackL.wav,-20,landoltCL.png,V2,frogFront.png,duckFront.png,HinCong,b,20,landoltCBottom.png,,,,,3,47,287,38,,,b,0,1.43461499689,,,2020_Mar_04_1508,59.9714442084,duckFrog,001,12,
frog,wnR.wav,-20,landoltCR.png,V2,frogFront.png,duckFront.png,HcongWN,h,20,landoltCTop.png,,,,,3,48,288,45,,,h,0,0.617607891239,,,2020_Mar_04_1508,59.9714442084,duckFrog,001,12,
frog,quackR.wav,20,landoltCTop.png,V2,duckFront.png,frogFront.png,HinCong,h,-20,landoltCR.png,,,,,3,49,289,42,,,h,0,1.55143460914,,,2020_Mar_04_1508,59.9714442084,duckFrog,001,12,
frog,wnL.wav,20,landoltCTop.png,V2,duckFront.png,frogFront.png,HcongWN,h,-20,landoltCL.png,,,,,3,50,290,25,,,h,0,1.53499493236,,,2020_Mar_04_1508,59.9714442084,duckFrog,001,12,
frog,quackL.wav,-20,landoltCL.png,V2,frogFront.png,duckFront.png,HinCong,h,20,landoltCTop.png,,,,,3,51,291,30,,,h,0,1.26794851353,,,2020_Mar_04_1508,59.9714442084,duckFrog,001,12,
frog,wnL.wav,-20,landoltCR.png,V2,frogFront.png,duckFront.png,HinCongWN,h,20,landoltCTop.png,,,,,3,52,292,31,,,h,0,1.26810393334,,,2020_Mar_04_1508,59.9714442084,duckFrog,001,12,
duck,wnR.wav,-20,landoltCL.png,V2,duckFront.png,frogFront.png,LcongWN,b,20,landoltCBottom.png,,,,,3,53,293,13,,,b,0,1.45161770392,,,2020_Mar_04_1508,59.9714442084,duckFrog,001,12,
frog,ribbitL.wav,20,landoltCTop.png,V2,duckFront.png,frogFront.png,Hcong,h,-20,landoltCR.png,,,,,3,54,294,40,,,h,0,1.30125453841,,,2020_Mar_04_1508,59.9714442084,duckFrog,001,12,
frog,quackL.wav,-20,landoltCL.png,V2,frogFront.png,duckFront.png,HinCong,b,20,landoltCBottom.png,,,,,3,55,295,54,,,b,0,2.16862535945,,,2020_Mar_04_1508,59.9714442084,duckFrog,001,12,
frog,wnR.wav,20,landoltCTop.png,V2,duckFront.png,frogFront.png,HinCongWN,h,-20,landoltCL.png,,,,,3,56,296,43,,,h,0,1.38469884664,,,2020_Mar_04_1508,59.9714442084,duckFrog,001,12,
frog,wnL.wav,20,landoltCTop.png,V2,duckFront.png,frogFront.png,HcongWN,h,-20,landoltCL.png,,,,,3,57,297,41,,,h,0,1.31806590312,,,2020_Mar_04_1508,59.9714442084,duckFrog,001,12,
duck,wnL.wav,20,landoltCTop.png,V2,frogFront.png,duckFront.png,LcongWN,h,-20,landoltCR.png,,,,,3,58,298,1,,,h,0,1.28485738215,,,2020_Mar_04_1508,59.9714442084,duckFrog,001,12,
duck,quackL.wav,20,landoltCBottom.png,V2,frogFront.png,duckFront.png,Lcong,b,-20,landoltCR.png,,,,,3,59,299,8,,,b,0,1.18467575361,,,2020_Mar_04_1508,59.9714442084,duckFrog,001,12,
frog,ribbitR.wav,-20,landoltCL.png,V2,frogFront.png,duckFront.png,Hcong,b,20,landoltCBottom.png,,,,,3,60,300,68,,,b,0,0.900940399821,,,2020_Mar_04_1508,59.9714442084,duckFrog,001,12,
frog,ribbitR.wav,-20,landoltCL.png,V2,frogFront.png,duckFront.png,Hcong,h,20,landoltCTop.png,,,,,3,61,301,76,,,h,0,0.700994283572,,,2020_Mar_04_1508,59.9714442084,duckFrog,001,12,
frog,wnL.wav,20,landoltCTop.png,V2,duckFront.png,frogFront.png,HcongWN,h,-20,landoltCL.png,,,,,3,62,302,73,,,h,0,1.61818998237,,,2020_Mar_04_1508,59.9714442084,duckFrog,001,12,
duck,wnL.wav,-20,landoltCL.png,V2,duckFront.png,frogFront.png,LinCongWN,h,20,landoltCTop.png,,,,,3,63,303,7,,,h,0,1.33457192656,,,2020_Mar_04_1508,59.9714442084,duckFrog,001,12,
duck,quackR.wav,-20,landoltCR.png,V2,duckFront.png,frogFront.png,Lcong,h,20,landoltCTop.png,,,,,3,64,304,4,,,h,0,0.834580174065,,,2020_Mar_04_1508,59.9714442084,duckFrog,001,12,
frog,wnR.wav,20,landoltCBottom.png,V2,duckFront.png,frogFront.png,HinCongWN,b,-20,landoltCR.png,,,,,3,65,305,67,,,b,0,1.51809925973,,,2020_Mar_04_1508,59.9714442084,duckFrog,001,12,
duck,wnR.wav,20,landoltCTop.png,V2,frogFront.png,duckFront.png,LinCongWN,h,-20,landoltCR.png,,,,,3,66,306,3,,,h,0,1.16803227161,,,2020_Mar_04_1508,59.9714442084,duckFrog,001,12,
frog,wnL.wav,-20,landoltCR.png,V2,frogFront.png,duckFront.png,HinCongWN,h,20,landoltCTop.png,,,,,3,67,307,63,,,h,0,1.11779098603,,,2020_Mar_04_1508,59.9714442084,duckFrog,001,12,
frog,ribbitL.wav,20,landoltCBottom.png,V2,duckFront.png,frogFront.png,Hcong,b,-20,landoltCL.png,,,,,3,68,308,48,,,b,0,0.811259871814,,,2020_Mar_04_1508,59.9714442084,duckFrog,001,12,
frog,wnR.wav,-20,landoltCR.png,V2,frogFront.png,duckFront.png,HcongWN,b,20,landoltCBottom.png,,,,,3,69,309,53,,,b,0,0.784205095493,,,2020_Mar_04_1508,59.9714442084,duckFrog,001,12,
frog,quackL.wav,-20,landoltCL.png,V2,frogFront.png,duckFront.png,HinCong,h,20,landoltCTop.png,,,,,3,70,310,46,,,h,0,0.934539303067,,,2020_Mar_04_1508,59.9714442084,duckFrog,001,12,
duck,ribbitL.wav,-20,landoltCR.png,V2,duckFront.png,frogFront.png,LinCong,b,20,landoltCBottom.png,,,,,3,71,311,14,,,b,0,0.95122054033,,,2020_Mar_04_1508,59.9714442084,duckFrog,001,12,
frog,wnR.wav,20,landoltCBottom.png,V2,duckFront.png,frogFront.png,HinCongWN,b,-20,landoltCR.png,,,,,3,72,312,35,,,b,0,1.53449348354,,,2020_Mar_04_1508,59.9714442084,duckFrog,001,12,
frog,quackL.wav,-20,landoltCL.png,V2,frogFront.png,duckFront.png,HinCong,b,20,landoltCBottom.png,,,,,3,73,313,70,,,b,0,1.28456487035,,,2020_Mar_04_1508,59.9714442084,duckFrog,001,12,
frog,wnL.wav,20,landoltCBottom.png,V2,duckFront.png,frogFront.png,HcongWN,b,-20,landoltCR.png,,,,,3,74,314,49,,,b,0,1.23454498468,,,2020_Mar_04_1508,59.9714442084,duckFrog,001,12,
frog,quackR.wav,20,landoltCTop.png,V2,duckFront.png,frogFront.png,HinCong,h,-20,landoltCR.png,,,,,3,75,315,74,,,h,0,1.73516574752,,,2020_Mar_04_1508,59.9714442084,duckFrog,001,12,
duck,wnL.wav,20,landoltCBottom.png,V2,frogFront.png,duckFront.png,LcongWN,b,-20,landoltCL.png,,,,,3,76,316,9,,,b,0,0.967899578274,,,2020_Mar_04_1508,59.9714442084,duckFrog,001,12,
frog,wnL.wav,-20,landoltCR.png,V2,frogFront.png,duckFront.png,HinCongWN,b,20,landoltCBottom.png,,,,,3,77,317,23,,,b,0,1.45132225967,,,2020_Mar_04_1508,59.9714442084,duckFrog,001,12,
frog,ribbitR.wav,-20,landoltCL.png,V2,frogFront.png,duckFront.png,Hcong,b,20,landoltCBottom.png,,,,,3,78,318,20,,,b,0,0.917461818579,,,2020_Mar_04_1508,59.9714442084,duckFrog,001,12,
frog,ribbitL.wav,20,landoltCTop.png,V2,duckFront.png,frogFront.png,Hcong,h,-20,landoltCR.png,,,,,3,79,319,72,,,h,0,1.40134159551,,,2020_Mar_04_1508,59.9714442084,duckFrog,001,12,
duck,wnR.wav,-20,landoltCL.png,V2,duckFront.png,frogFront.png,LcongWN,h,20,landoltCTop.png,,,,,4,0,320,5,,,h,0,0.867595886491,,,2020_Mar_04_1508,59.9714442084,duckFrog,001,12,
frog,ribbitL.wav,20,landoltCTop.png,V2,duckFront.png,frogFront.png,Hcong,h,-20,landoltCR.png,,,,,4,1,321,24,,,h,0,1.71823305273,,,2020_Mar_04_1508,59.9714442084,duckFrog,001,12,
frog,ribbitR.wav,-20,landoltCL.png,V2,frogFront.png,duckFront.png,Hcong,h,20,landoltCTop.png,,,,,4,2,322,76,,,h,0,0.66738951538,,,2020_Mar_04_1508,59.9714442084,duckFrog,001,12,
frog,wnR.wav,20,landoltCBottom.png,V2,duckFront.png,frogFront.png,HinCongWN,b,-20,landoltCR.png,,,,,4,3,323,51,,,b,0,1.60147868752,,,2020_Mar_04_1508,59.9714442084,duckFrog,001,12,
frog,quackL.wav,-20,landoltCL.png,V2,frogFront.png,duckFront.png,HinCong,h,20,landoltCTop.png,,,,,4,4,324,78,,,h,0,1.15114246387,,,2020_Mar_04_1508,59.9714442084,duckFrog,001,12,
frog,wnR.wav,-20,landoltCR.png,V2,frogFront.png,duckFront.png,HcongWN,h,20,landoltCTop.png,,,,,4,5,325,29,,,h,0,1.16802530704,,,2020_Mar_04_1508,59.9714442084,duckFrog,001,12,
frog,quackR.wav,20,landoltCTop.png,V2,duckFront.png,frogFront.png,HinCong,h,-20,landoltCR.png,,,,,4,6,326,26,,,h,0,1.0510554068,,,2020_Mar_04_1508,59.9714442084,duckFrog,001,12,
frog,quackR.wav,20,landoltCTop.png,V2,duckFront.png,frogFront.png,HinCong,h,-20,landoltCR.png,,,,,4,7,327,42,,,h,0,1.30147923736,,,2020_Mar_04_1508,59.9714442084,duckFrog,001,12,
frog,wnR.wav,20,landoltCTop.png,V2,duckFront.png,frogFront.png,HinCongWN,h,-20,landoltCL.png,,,,,4,8,328,27,,,h,0,1.26865853279,,,2020_Mar_04_1508,59.9714442084,duckFrog,001,12,
frog,quackL.wav,-20,landoltCL.png,V2,frogFront.png,duckFront.png,HinCong,b,20,landoltCBottom.png,,,,,4,9,329,70,,,b,0,1.0011385234,,,2020_Mar_04_1508,59.9714442084,duckFrog,001,12,
duck,ribbitR.wav,20,landoltCTop.png,V2,frogFront.png,duckFront.png,LinCong,h,-20,landoltCL.png,,,,,4,10,330,2,,,h,0,1.28449082602,,,2020_Mar_04_1508,59.9714442084,duckFrog,001,12,
frog,quackL.wav,-20,landoltCL.png,V2,frogFront.png,duckFront.png,HinCong,h,20,landoltCTop.png,,,,,4,11,331,30,,,h,0,0.767524224793,,,2020_Mar_04_1508,59.9714442084,duckFrog,001,12,
frog,wnL.wav,20,landoltCTop.png,V2,duckFront.png,frogFront.png,HcongWN,h,-20,landoltCL.png,,,,,4,12,332,41,,,h,0,1.30122704673,,,2020_Mar_04_1508,59.9714442084,duckFrog,001,12,
duck,wnL.wav,-20,landoltCL.png,V2,duckFront.png,frogFront.png,LinCongWN,b,20,landoltCBottom.png,,,,,4,13,333,15,,,b,0,0.884176687396,,,2020_Mar_04_1508,59.9714442084,duckFrog,001,12,
duck,wnL.wav,-20,landoltCL.png,V2,duckFront.png,frogFront.png,LinCongWN,h,20,landoltCTop.png,,,,,4,14,334,7,,,h,0,0.891953542654,,,2020_Mar_04_1508,59.9714442084,duckFrog,001,12,
frog,wnL.wav,20,landoltCTop.png,V2,duckFront.png,frogFront.png,HcongWN,h,-20,landoltCL.png,,,,,4,15,335,25,,,h,0,1.7182198567,,,2020_Mar_04_1508,59.9714442084,duckFrog,001,12,
duck,wnR.wav,-20,landoltCL.png,V2,duckFront.png,frogFront.png,LcongWN,b,20,landoltCBottom.png,,,,,4,16,336,13,,,b,0,1.06788766518,,,2020_Mar_04_1508,59.9714442084,duckFrog,001,12,
frog,wnR.wav,-20,landoltCR.png,V2,frogFront.png,duckFront.png,HcongWN,h,20,landoltCTop.png,,,,,4,17,337,77,,,h,0,0.701052566001,,,2020_Mar_04_1508,59.9714442084,duckFrog,001,12,
duck,wnR.wav,20,landoltCBottom.png,V2,frogFront.png,duckFront.png,LinCongWN,b,-20,landoltCL.png,,,,,4,18,338,11,,,b,0,1.55145953497,,,2020_Mar_04_1508,59.9714442084,duckFrog,001,12,
frog,wnL.wav,-20,landoltCR.png,V2,frogFront.png,duckFront.png,HinCongWN,b,20,landoltCBottom.png,,,,,4,19,339,55,,,b,0,1.40137092001,,,2020_Mar_04_1508,59.9714442084,duckFrog,001,12,
frog,quackR.wav,20,landoltCBottom.png,V2,duckFront.png,frogFront.png,HinCong,b,-20,landoltCL.png,,,,,4,20,340,50,,,b,0,1.35193092618,,,2020_Mar_04_1508,59.9714442084,duckFrog,001,12,
frog,wnL.wav,-20,landoltCR.png,V2,frogFront.png,duckFront.png,HinCongWN,b,20,landoltCBottom.png,,,,,4,21,341,71,,,b,0,1.08438855686,,,2020_Mar_04_1508,59.9714442084,duckFrog,001,12,
frog,wnL.wav,-20,landoltCR.png,V2,frogFront.png,duckFront.png,HinCongWN,b,20,landoltCBottom.png,,,,,4,22,342,23,,,b,0,1.20144349811,,,2020_Mar_04_1508,59.9714442084,duckFrog,001,12,
frog,ribbitL.wav,20,landoltCBottom.png,V2,duckFront.png,frogFront.png,Hcong,b,-20,landoltCL.png,,,,,4,23,343,64,,,b,0,1.3012145838,,,2020_Mar_04_1508,59.9714442084,duckFrog,001,12,
frog,wnL.wav,-20,landoltCR.png,V2,frogFront.png,duckFront.png,HinCongWN,h,20,landoltCTop.png,,,,,4,24,344,79,,,h,0,0.784156710084,,,2020_Mar_04_1508,59.9714442084,duckFrog,001,12,
frog,wnR.wav,20,landoltCTop.png,V2,duckFront.png,frogFront.png,HinCongWN,h,-20,landoltCL.png,,,,,4,25,345,43,,,h,0,1.31786906248,,,2020_Mar_04_1508,59.9714442084,duckFrog,001,12,
frog,wnL.wav,20,landoltCBottom.png,V2,duckFront.png,frogFront.png,HcongWN,b,-20,landoltCR.png,,,,,4,26,346,17,,,b,0,1.41823067013,,,2020_Mar_04_1508,59.9714442084,duckFrog,001,12,
frog,ribbitL.wav,20,landoltCTop.png,V2,duckFront.png,frogFront.png,Hcong,h,-20,landoltCR.png,,,,,4,27,347,72,,,h,0,0.91785366711,,,2020_Mar_04_1508,59.9714442084,duckFrog,001,12,
frog,ribbitR.wav,-20,landoltCL.png,V2,frogFront.png,duckFront.png,Hcong,h,20,landoltCTop.png,,,,,4,28,348,60,,,h,0,1.15118425127,,,2020_Mar_04_1508,59.9714442084,duckFrog,001,12,
frog,ribbitL.wav,20,landoltCBottom.png,V2,duckFront.png,frogFront.png,Hcong,b,-20,landoltCL.png,,,,,4,29,349,48,,,b,0,0.935101600189,,,2020_Mar_04_1508,59.9714442084,duckFrog,001,12,
frog,wnL.wav,20,landoltCBottom.png,V2,duckFront.png,frogFront.png,HcongWN,b,-20,landoltCR.png,,,,,4,30,350,65,,,b,0,1.08467703656,,,2020_Mar_04_1508,59.9714442084,duckFrog,001,12,
frog,ribbitR.wav,-20,landoltCL.png,V2,frogFront.png,duckFront.png,Hcong,h,20,landoltCTop.png,,,,,4,31,351,28,,,h,0,0.884265027416,,,2020_Mar_04_1508,59.9714442084,duckFrog,001,12,
duck,quackR.wav,-20,landoltCR.png,V2,duckFront.png,frogFront.png,Lcong,h,20,landoltCTop.png,,,,,4,32,352,4,,,h,0,0.934548833553,,,2020_Mar_04_1508,59.9714442084,duckFrog,001,12,
frog,wnR.wav,20,landoltCBottom.png,V2,duckFront.png,frogFront.png,HinCongWN,b,-20,landoltCR.png,,,,,4,33,353,67,,,b,0,1.11777888966,,,2020_Mar_04_1508,59.9714442084,duckFrog,001,12,
frog,wnR.wav,-20,landoltCR.png,V2,frogFront.png,duckFront.png,HcongWN,h,20,landoltCTop.png,,,,,4,34,354,61,,,h,0,0.734172746917,,,2020_Mar_04_1508,59.9714442084,duckFrog,001,12,
frog,ribbitL.wav,20,landoltCTop.png,V2,duckFront.png,frogFront.png,Hcong,h,-20,landoltCR.png,,,,,4,35,355,40,,,h,0,0.967686242599,,,2020_Mar_04_1508,59.9714442084,duckFrog,001,12,
frog,quackR.wav,20,landoltCBottom.png,V2,duckFront.png,frogFront.png,HinCong,b,-20,landoltCL.png,,,,,4,36,356,66,,,b,0,1.25144285662,,,2020_Mar_04_1508,59.9714442084,duckFrog,001,12,
frog,wnR.wav,20,landoltCTop.png,V2,duckFront.png,frogFront.png,HinCongWN,h,-20,landoltCL.png,,,,,4,37,357,75,,,h,0,1.20143103521,,,2020_Mar_04_1508,59.9714442084,duckFrog,001,12,
frog,quackL.wav,-20,landoltCL.png,V2,frogFront.png,duckFront.png,HinCong,b,20,landoltCBottom.png,,,,,4,38,358,22,,,h,0,1.46805554791,,,2020_Mar_04_1508,59.9714442084,duckFrog,001,12,
frog,wnR.wav,-20,landoltCR.png,V2,frogFront.png,duckFront.png,HcongWN,h,20,landoltCTop.png,,,,,4,39,359,45,,,h,0,0.684339804895,,,2020_Mar_04_1508,59.9714442084,duckFrog,001,12,
frog,quackR.wav,20,landoltCBottom.png,V2,duckFront.png,frogFront.png,HinCong,b,-20,landoltCL.png,,,,,4,40,360,34,,,b,0,1.23460363367,,,2020_Mar_04_1508,59.9714442084,duckFrog,001,12,
frog,ribbitR.wav,-20,landoltCL.png,V2,frogFront.png,duckFront.png,Hcong,b,20,landoltCBottom.png,,,,,4,41,361,36,,,b,0,0.750834556704,,,2020_Mar_04_1508,59.9714442084,duckFrog,001,12,
frog,ribbitR.wav,-20,landoltCL.png,V2,frogFront.png,duckFront.png,Hcong,b,20,landoltCBottom.png,,,,,4,42,362,52,,,b,0,0.734366655146,,,2020_Mar_04_1508,59.9714442084,duckFrog,001,12,
frog,wnR.wav,-20,landoltCR.png,V2,frogFront.png,duckFront.png,HcongWN,b,20,landoltCBottom.png,,,,,4,43,363,21,,,b,0,0.567535588023,,,2020_Mar_04_1508,59.9714442084,duckFrog,001,12,
duck,wnR.wav,20,landoltCTop.png,V2,frogFront.png,duckFront.png,LinCongWN,h,-20,landoltCR.png,,,,,4,44,364,3,,,h,0,1.65150810365,,,2020_Mar_04_1508,59.9714442084,duckFrog,001,12,
frog,quackR.wav,20,landoltCBottom.png,V2,duckFront.png,frogFront.png,HinCong,b,-20,landoltCL.png,,,,,4,45,365,18,,,s,0,47.9380303838,,,2020_Mar_04_1508,59.9714442084,duckFrog,001,12,
duck,ribbitL.wav,-20,landoltCR.png,V2,duckFront.png,frogFront.png,LinCong,h,20,landoltCTop.png,,,,,4,46,366,6,,,h,0,3.51969561179,,,2020_Mar_04_1508,59.9714442084,duckFrog,001,12,
frog,quackL.wav,-20,landoltCL.png,V2,frogFront.png,duckFront.png,HinCong,h,20,landoltCTop.png,,,,,4,47,367,46,,,h,0,1.65184496876,,,2020_Mar_04_1508,59.9714442084,duckFrog,001,12,
frog,wnR.wav,20,landoltCTop.png,V2,duckFront.png,frogFront.png,HinCongWN,h,-20,landoltCL.png,,,,,4,48,368,59,,,h,0,1.08441971411,,,2020_Mar_04_1508,59.9714442084,duckFrog,001,12,
frog,wnL.wav,20,landoltCTop.png,V2,duckFront.png,frogFront.png,HcongWN,h,-20,landoltCL.png,,,,,4,49,369,57,,,h,0,1.33488020027,,,2020_Mar_04_1508,59.9714442084,duckFrog,001,12,
frog,quackL.wav,-20,landoltCL.png,V2,frogFront.png,duckFront.png,HinCong,b,20,landoltCBottom.png,,,,,4,50,370,38,,,b,0,1.26791918903,,,2020_Mar_04_1508,59.9714442084,duckFrog,001,12,
frog,wnR.wav,-20,landoltCR.png,V2,frogFront.png,duckFront.png,HcongWN,b,20,landoltCBottom.png,,,,,4,51,371,69,,,b,0,0.784426861966,,,2020_Mar_04_1508,59.9714442084,duckFrog,001,12,
duck,quackL.wav,20,landoltCBottom.png,V2,frogFront.png,duckFront.png,Lcong,b,-20,landoltCR.png,,,,,4,52,372,8,,,b,0,1.26792981915,,,2020_Mar_04_1508,59.9714442084,duckFrog,001,12,
frog,ribbitL.wav,20,landoltCTop.png,V2,duckFront.png,frogFront.png,Hcong,h,-20,landoltCR.png,,,,,4,53,373,56,,,h,0,0.884484961105,,,2020_Mar_04_1508,59.9714442084,duckFrog,001,12,
duck,wnL.wav,20,landoltCBottom.png,V2,frogFront.png,duckFront.png,LcongWN,b,-20,landoltCL.png,,,,,4,54,374,9,,,b,0,1.15144450616,,,2020_Mar_04_1508,59.9714442084,duckFrog,001,12,
frog,quackR.wav,20,landoltCTop.png,V2,duckFront.png,frogFront.png,HinCong,h,-20,landoltCR.png,,,,,4,55,375,74,,,h,0,1.40152010834,,,2020_Mar_04_1508,59.9714442084,duckFrog,001,12,
frog,wnL.wav,-20,landoltCR.png,V2,frogFront.png,duckFront.png,HinCongWN,h,20,landoltCTop.png,,,,,4,56,376,63,,,h,0,0.767515427433,,,2020_Mar_04_1508,59.9714442084,duckFrog,001,12,
duck,quackR.wav,-20,landoltCR.png,V2,duckFront.png,frogFront.png,Lcong,b,20,landoltCBottom.png,,,,,4,57,377,12,,,b,0,0.901334814203,,,2020_Mar_04_1508,59.9714442084,duckFrog,001,12,
frog,wnR.wav,-20,landoltCR.png,V2,frogFront.png,duckFront.png,HcongWN,b,20,landoltCBottom.png,,,,,4,58,378,53,,,b,0,0.801204870077,,,2020_Mar_04_1508,59.9714442084,duckFrog,001,12,
duck,ribbitR.wav,20,landoltCBottom.png,V2,frogFront.png,duckFront.png,LinCong,b,-20,landoltCR.png,,,,,4,59,379,10,,,b,0,1.35131401216,,,2020_Mar_04_1508,59.9714442084,duckFrog,001,12,
frog,wnL.wav,-20,landoltCR.png,V2,frogFront.png,duckFront.png,HinCongWN,b,20,landoltCBottom.png,,,,,4,60,380,39,,,b,0,0.867606150074,,,2020_Mar_04_1508,59.9714442084,duckFrog,001,12,
frog,ribbitL.wav,20,landoltCBottom.png,V2,duckFront.png,frogFront.png,Hcong,b,-20,landoltCL.png,,,,,4,61,381,32,,,b,0,1.41802723144,,,2020_Mar_04_1508,59.9714442084,duckFrog,001,12,
frog,wnL.wav,20,landoltCTop.png,V2,duckFront.png,frogFront.png,HcongWN,h,-20,landoltCL.png,,,,,4,62,382,73,,,h,0,1.50167571145,,,2020_Mar_04_1508,59.9714442084,duckFrog,001,12,
frog,quackL.wav,-20,landoltCL.png,V2,frogFront.png,duckFront.png,HinCong,b,20,landoltCBottom.png,,,,,4,63,383,54,,,b,0,0.834233411966,,,2020_Mar_04_1508,59.9714442084,duckFrog,001,12,
frog,wnL.wav,-20,landoltCR.png,V2,frogFront.png,duckFront.png,HinCongWN,h,20,landoltCTop.png,,,,,4,64,384,31,,,h,0,0.934564961994,,,2020_Mar_04_1508,59.9714442084,duckFrog,001,12,
frog,wnR.wav,20,landoltCBottom.png,V2,duckFront.png,frogFront.png,HinCongWN,b,-20,landoltCR.png,,,,,4,65,385,35,,,s,0,7.10589000751,,,2020_Mar_04_1508,59.9714442084,duckFrog,001,12,
frog,wnL.wav,-20,landoltCR.png,V2,frogFront.png,duckFront.png,HinCongWN,h,20,landoltCTop.png,,,,,4,66,386,47,,,h,0,0.534422371682,,,2020_Mar_04_1508,59.9714442084,duckFrog,001,12,
frog,wnR.wav,20,landoltCBottom.png,V2,duckFront.png,frogFront.png,HinCongWN,b,-20,landoltCR.png,,,,,4,67,387,19,,,b,0,1.83463699027,,,2020_Mar_04_1508,59.9714442084,duckFrog,001,12,
frog,ribbitL.wav,20,landoltCBottom.png,V2,duckFront.png,frogFront.png,Hcong,b,-20,landoltCL.png,,,,,4,68,388,16,,,b,0,1.25146411691,,,2020_Mar_04_1508,59.9714442084,duckFrog,001,12,
frog,ribbitR.wav,-20,landoltCL.png,V2,frogFront.png,duckFront.png,Hcong,b,20,landoltCBottom.png,,,,,4,69,389,20,,,b,0,0.984301133227,,,2020_Mar_04_1508,59.9714442084,duckFrog,001,12,
frog,quackL.wav,-20,landoltCL.png,V2,frogFront.png,duckFront.png,HinCong,h,20,landoltCTop.png,,,,,4,70,390,62,,,h,0,1.35150645414,,,2020_Mar_04_1508,59.9714442084,duckFrog,001,12,
frog,quackR.wav,20,landoltCTop.png,V2,duckFront.png,frogFront.png,HinCong,h,-20,landoltCR.png,,,,,4,71,391,58,,,h,0,1.53350231572,,,2020_Mar_04_1508,59.9714442084,duckFrog,001,12,
duck,ribbitL.wav,-20,landoltCR.png,V2,duckFront.png,frogFront.png,LinCong,b,20,landoltCBottom.png,,,,,4,72,392,14,,,b,0,1.31796363398,,,2020_Mar_04_1508,59.9714442084,duckFrog,001,12,
frog,wnL.wav,20,landoltCBottom.png,V2,duckFront.png,frogFront.png,HcongWN,b,-20,landoltCR.png,,,,,4,73,393,33,,,b,0,1.61894838707,,,2020_Mar_04_1508,59.9714442084,duckFrog,001,12,
frog,ribbitR.wav,-20,landoltCL.png,V2,frogFront.png,duckFront.png,Hcong,b,20,landoltCBottom.png,,,,,4,74,394,68,,,b,0,0.934623244422,,,2020_Mar_04_1508,59.9714442084,duckFrog,001,12,
frog,ribbitR.wav,-20,landoltCL.png,V2,frogFront.png,duckFront.png,Hcong,h,20,landoltCTop.png,,,,,4,75,395,44,,,s,0,20.4499377771,,,2020_Mar_04_1508,59.9714442084,duckFrog,001,12,
duck,wnL.wav,20,landoltCTop.png,V2,frogFront.png,duckFront.png,LcongWN,h,-20,landoltCR.png,,,,,4,76,396,1,,,h,0,1.5510728182,,,2020_Mar_04_1508,59.9714442084,duckFrog,001,12,
frog,wnL.wav,20,landoltCBottom.png,V2,duckFront.png,frogFront.png,HcongWN,b,-20,landoltCR.png,,,,,4,77,397,49,,,b,0,1.40524468539,,,2020_Mar_04_1508,59.9714442084,duckFrog,001,12,
duck,quackL.wav,20,landoltCTop.png,V2,frogFront.png,duckFront.png,Lcong,h,-20,landoltCL.png,,,,,4,78,398,0,,,h,0,1.30147777111,,,2020_Mar_04_1508,59.9714442084,duckFrog,001,12,
frog,wnR.wav,-20,landoltCR.png,V2,frogFront.png,duckFront.png,HcongWN,b,20,landoltCBottom.png,,,,,4,79,399,37,,,b,0,0.967671213788,,,2020_Mar_04_1508,59.9714442084,duckFrog,001,12,
frog,wnR.wav,20,landoltCBottom.png,V2,duckFront.png,frogFront.png,HinCongWN,b,-20,landoltCR.png,,,,,5,0,400,19,,,b,0,1.4514223295,,,2020_Mar_04_1508,59.9714442084,duckFrog,001,12,
frog,wnL.wav,-20,landoltCR.png,V2,frogFront.png,duckFront.png,HinCongWN,b,20,landoltCBottom.png,,,,,5,1,401,23,,,b,0,1.30129082748,,,2020_Mar_04_1508,59.9714442084,duckFrog,001,12,
frog,quackR.wav,20,landoltCTop.png,V2,duckFront.png,frogFront.png,HinCong,h,-20,landoltCR.png,,,,,5,2,402,74,,,h,0,1.40136908722,,,2020_Mar_04_1508,59.9714442084,duckFrog,001,12,
frog,ribbitL.wav,20,landoltCBottom.png,V2,duckFront.png,frogFront.png,Hcong,b,-20,landoltCL.png,,,,,5,3,403,48,,,b,0,0.917847802222,,,2020_Mar_04_1508,59.9714442084,duckFrog,001,12,
frog,wnR.wav,-20,landoltCR.png,V2,frogFront.png,duckFront.png,HcongWN,h,20,landoltCTop.png,,,,,5,4,404,29,,,h,0,1.20112276147,,,2020_Mar_04_1508,59.9714442084,duckFrog,001,12,
frog,wnL.wav,20,landoltCTop.png,V2,duckFront.png,frogFront.png,HcongWN,h,-20,landoltCL.png,,,,,5,5,405,25,,,h,0,0.767479138362,,,2020_Mar_04_1508,59.9714442084,duckFrog,001,12,
frog,wnL.wav,-20,landoltCR.png,V2,frogFront.png,duckFront.png,HinCongWN,h,20,landoltCTop.png,,,,,5,6,406,31,,,h,0,0.817570869054,,,2020_Mar_04_1508,59.9714442084,duckFrog,001,12,
duck,quackR.wav,-20,landoltCR.png,V2,duckFront.png,frogFront.png,Lcong,b,20,landoltCBottom.png,,,,,5,7,407,12,,,b,0,1.13467712817,,,2020_Mar_04_1508,59.9714442084,duckFrog,001,12,
frog,wnL.wav,-20,landoltCR.png,V2,frogFront.png,duckFront.png,HinCongWN,b,20,landoltCBottom.png,,,,,5,8,408,55,,,b,0,1.11800322204,,,2020_Mar_04_1508,59.9714442084,duckFrog,001,12,
frog,quackL.wav,-20,landoltCL.png,V2,frogFront.png,duckFront.png,HinCong,b,20,landoltCBottom.png,,,,,5,9,409,54,,,b,0,1.35147053163,,,2020_Mar_04_1508,59.9714442084,duckFrog,001,12,
frog,quackL.wav,-20,landoltCL.png,V2,frogFront.png,duckFront.png,HinCong,b,20,landoltCBottom.png,,,,,5,10,410,70,,,b,0,0.917847069097,,,2020_Mar_04_1508,59.9714442084,duckFrog,001,12,
frog,wnR.wav,-20,landoltCR.png,V2,frogFront.png,duckFront.png,HcongWN,b,20,landoltCBottom.png,,,,,5,11,411,21,,,s,0,212.334941415,,,2020_Mar_04_1508,59.9714442084,duckFrog,001,12,
duck,ribbitL.wav,-20,landoltCR.png,V2,duckFront.png,frogFront.png,LinCong,b,20,landoltCBottom.png,,,,,5,12,412,14,,,s,0,3.45295086867,,,2020_Mar_04_1508,59.9714442084,duckFrog,001,12,
frog,ribbitR.wav,-20,landoltCL.png,V2,frogFront.png,duckFront.png,Hcong,b,20,landoltCBottom.png,,,,,5,13,413,20,,,b,0,0.851160974969,,,2020_Mar_04_1508,59.9714442084,duckFrog,001,12,
frog,wnL.wav,20,landoltCBottom.png,V2,duckFront.png,frogFront.png,HcongWN,b,-20,landoltCR.png,,,,,5,14,414,17,,,b,0,0.850909150875,,,2020_Mar_04_1508,59.9714442084,duckFrog,001,12,
frog,ribbitR.wav,-20,landoltCL.png,V2,frogFront.png,duckFront.png,Hcong,b,20,landoltCBottom.png,,,,,5,15,415,68,,,b,0,0.61732564299,,,2020_Mar_04_1508,59.9714442084,duckFrog,001,12,
frog,quackR.wav,20,landoltCBottom.png,V2,duckFront.png,frogFront.png,HinCong,b,-20,landoltCL.png,,,,,5,16,416,18,,,b,0,1.35133637208,,,2020_Mar_04_1508,59.9714442084,duckFrog,001,12,
frog,quackR.wav,20,landoltCTop.png,V2,duckFront.png,frogFront.png,HinCong,h,-20,landoltCR.png,,,,,5,17,417,58,,,h,0,1.33485930657,,,2020_Mar_04_1508,59.9714442084,duckFrog,001,12,
frog,wnR.wav,-20,landoltCR.png,V2,frogFront.png,duckFront.png,HcongWN,b,20,landoltCBottom.png,,,,,5,18,418,69,,,b,0,0.717455587146,,,2020_Mar_04_1508,59.9714442084,duckFrog,001,12,
frog,wnL.wav,-20,landoltCR.png,V2,frogFront.png,duckFront.png,HinCongWN,h,20,landoltCTop.png,,,,,5,19,419,47,,,b,0,0.650959369086,,,2020_Mar_04_1508,59.9714442084,duckFrog,001,12,
duck,wnR.wav,-20,landoltCL.png,V2,duckFront.png,frogFront.png,LcongWN,h,20,landoltCTop.png,,,,,5,20,420,5,,,h,0,1.0012330949,,,2020_Mar_04_1508,59.9714442084,duckFrog,001,12,
frog,wnL.wav,-20,landoltCR.png,V2,frogFront.png,duckFront.png,HinCongWN,b,20,landoltCBottom.png,,,,,5,21,421,39,,,b,0,0.700604267826,,,2020_Mar_04_1508,59.9714442084,duckFrog,001,12,
frog,quackR.wav,20,landoltCTop.png,V2,duckFront.png,frogFront.png,HinCong,h,-20,landoltCR.png,,,,,5,22,422,42,,,h,0,1.40134416139,,,2020_Mar_04_1508,59.9714442084,duckFrog,001,12,
frog,wnR.wav,-20,landoltCR.png,V2,frogFront.png,duckFront.png,HcongWN,h,20,landoltCTop.png,,,,,5,23,423,45,,,h,0,0.917633000325,,,2020_Mar_04_1508,59.9714442084,duckFrog,001,12,
frog,ribbitL.wav,20,landoltCTop.png,V2,duckFront.png,frogFront.png,Hcong,h,-20,landoltCR.png,,,,,5,24,424,40,,,h,0,0.76750882942,,,2020_Mar_04_1508,59.9714442084,duckFrog,001,12,
frog,quackL.wav,-20,landoltCL.png,V2,frogFront.png,duckFront.png,HinCong,h,20,landoltCTop.png,,,,,5,25,425,46,,,h,0,1.41807048509,,,2020_Mar_04_1508,59.9714442084,duckFrog,001,12,
frog,wnL.wav,20,landoltCBottom.png,V2,duckFront.png,frogFront.png,HcongWN,b,-20,landoltCR.png,,,,,5,26,426,49,,,b,0,0.784246516356,,,2020_Mar_04_1508,59.9714442084,duckFrog,001,12,
frog,wnL.wav,20,landoltCBottom.png,V2,duckFront.png,frogFront.png,HcongWN,b,-20,landoltCR.png,,,,,5,27,427,33,,,b,0,0.934528306389,,,2020_Mar_04_1508,59.9714442084,duckFrog,001,12,
duck,quackL.wav,20,landoltCTop.png,V2,frogFront.png,duckFront.png,Lcong,h,-20,landoltCL.png,,,,,5,28,428,0,,,h,0,0.8511448465,,,2020_Mar_04_1508,59.9714442084,duckFrog,001,12,
frog,ribbitR.wav,-20,landoltCL.png,V2,frogFront.png,duckFront.png,Hcong,h,20,landoltCTop.png,,,,,5,29,429,60,,,h,0,0.767543285707,,,2020_Mar_04_1508,59.9714442084,duckFrog,001,12,
frog,wnR.wav,20,landoltCTop.png,V2,duckFront.png,frogFront.png,HinCongWN,h,-20,landoltCL.png,,,,,5,30,430,75,,,h,0,1.41820317841,,,2020_Mar_04_1508,59.9714442084,duckFrog,001,12,
frog,wnL.wav,-20,landoltCR.png,V2,frogFront.png,duckFront.png,HinCongWN,h,20,landoltCTop.png,,,,,5,31,431,63,,,h,0,1.35136056479,,,2020_Mar_04_1508,59.9714442084,duckFrog,001,12,
frog,quackR.wav,20,landoltCBottom.png,V2,duckFront.png,frogFront.png,HinCong,b,-20,landoltCL.png,,,,,5,32,432,66,,,b,0,1.51810952331,,,2020_Mar_04_1508,59.9714442084,duckFrog,001,12,
frog,wnR.wav,20,landoltCTop.png,V2,duckFront.png,frogFront.png,HinCongWN,h,-20,landoltCL.png,,,,,5,33,433,59,,,h,0,1.36824450761,,,2020_Mar_04_1508,59.9714442084,duckFrog,001,12,
frog,ribbitR.wav,-20,landoltCL.png,V2,frogFront.png,duckFront.png,Hcong,b,20,landoltCBottom.png,,,,,5,34,434,36,,,b,0,0.717471715587,,,2020_Mar_04_1508,59.9714442084,duckFrog,001,12,
frog,wnR.wav,20,landoltCBottom.png,V2,duckFront.png,frogFront.png,HinCongWN,b,-20,landoltCR.png,,,,,5,35,435,51,,,b,0,1.16784276208,,,2020_Mar_04_1508,59.9714442084,duckFrog,001,12,
frog,ribbitR.wav,-20,landoltCL.png,V2,frogFront.png,duckFront.png,Hcong,h,20,landoltCTop.png,,,,,5,36,436,76,,,h,0,0.834222781821,,,2020_Mar_04_1508,59.9714442084,duckFrog,001,12,
duck,wnL.wav,20,landoltCBottom.png,V2,frogFront.png,duckFront.png,LcongWN,b,-20,landoltCL.png,,,,,5,37,437,9,,,b,0,0.800882300653,,,2020_Mar_04_1508,59.9714442084,duckFrog,001,12,
frog,wnL.wav,20,landoltCTop.png,V2,duckFront.png,frogFront.png,HcongWN,h,-20,landoltCL.png,,,,,5,38,438,57,,,h,0,1.4849926414,,,2020_Mar_04_1508,59.9714442084,duckFrog,001,12,
duck,ribbitL.wav,-20,landoltCR.png,V2,duckFront.png,frogFront.png,LinCong,h,20,landoltCTop.png,,,,,5,39,439,6,,,h,0,1.23460986512,,,2020_Mar_04_1508,59.9714442084,duckFrog,001,12,
duck,wnR.wav,20,landoltCTop.png,V2,frogFront.png,duckFront.png,LinCongWN,h,-20,landoltCR.png,,,,,5,40,440,3,,,h,0,1.21786374741,,,2020_Mar_04_1508,59.9714442084,duckFrog,001,12,
duck,quackL.wav,20,landoltCBottom.png,V2,frogFront.png,duckFront.png,Lcong,b,-20,landoltCR.png,,,,,5,41,441,8,,,b,0,1.31817440374,,,2020_Mar_04_1508,59.9714442084,duckFrog,001,12,
duck,ribbitR.wav,20,landoltCTop.png,V2,frogFront.png,duckFront.png,LinCong,h,-20,landoltCL.png,,,,,5,42,442,2,,,h,0,1.35164207991,,,2020_Mar_04_1508,59.9714442084,duckFrog,001,12,
frog,ribbitL.wav,20,landoltCTop.png,V2,duckFront.png,frogFront.png,Hcong,h,-20,landoltCR.png,,,,,5,43,443,72,,,h,0,1.40158755469,,,2020_Mar_04_1508,59.9714442084,duckFrog,001,12,
duck,wnL.wav,-20,landoltCL.png,V2,duckFront.png,frogFront.png,LinCongWN,b,20,landoltCBottom.png,,,,,5,44,444,15,,,b,0,1.31785549992,,,2020_Mar_04_1508,59.9714442084,duckFrog,001,12,
frog,wnR.wav,-20,landoltCR.png,V2,frogFront.png,duckFront.png,HcongWN,h,20,landoltCTop.png,,,,,5,45,445,77,,,h,0,0.867832681775,,,2020_Mar_04_1508,59.9714442084,duckFrog,001,12,
frog,wnL.wav,-20,landoltCR.png,V2,frogFront.png,duckFront.png,HinCongWN,h,20,landoltCTop.png,,,,,5,46,446,79,,,h,0,0.801075109193,,,2020_Mar_04_1508,59.9714442084,duckFrog,001,12,
frog,quackL.wav,-20,landoltCL.png,V2,frogFront.png,duckFront.png,HinCong,b,20,landoltCBottom.png,,,,,5,47,447,38,,,b,0,1.55165380973,,,2020_Mar_04_1508,59.9714442084,duckFrog,001,12,
frog,wnL.wav,20,landoltCTop.png,V2,duckFront.png,frogFront.png,HcongWN,h,-20,landoltCL.png,,,,,5,48,448,41,,,h,0,1.08442924457,,,2020_Mar_04_1508,59.9714442084,duckFrog,001,12,
frog,quackR.wav,20,landoltCTop.png,V2,duckFront.png,frogFront.png,HinCong,h,-20,landoltCR.png,,,,,5,49,449,26,,,h,0,1.30149096713,,,2020_Mar_04_1508,59.9714442084,duckFrog,001,12,
frog,wnL.wav,-20,landoltCR.png,V2,frogFront.png,duckFront.png,HinCongWN,b,20,landoltCBottom.png,,,,,5,50,450,71,,,b,0,1.13443263521,,,2020_Mar_04_1508,59.9714442084,duckFrog,001,12,
frog,wnR.wav,-20,landoltCR.png,V2,frogFront.png,duckFront.png,HcongWN,b,20,landoltCBottom.png,,,,,5,51,451,37,,,b,0,0.801098202239,,,2020_Mar_04_1508,59.9714442084,duckFrog,001,12,
frog,wnR.wav,-20,landoltCR.png,V2,frogFront.png,duckFront.png,HcongWN,h,20,landoltCTop.png,,,,,5,52,452,61,,,h,0,0.901239509636,,,2020_Mar_04_1508,59.9714442084,duckFrog,001,12,
frog,quackR.wav,20,landoltCBottom.png,V2,duckFront.png,frogFront.png,HinCong,b,-20,landoltCL.png,,,,,5,53,453,34,,,b,0,1.31795447005,,,2020_Mar_04_1508,59.9714442084,duckFrog,001,12,
frog,wnR.wav,20,landoltCBottom.png,V2,duckFront.png,frogFront.png,HinCongWN,b,-20,landoltCR.png,,,,,5,54,454,67,,,b,0,1.26814278826,,,2020_Mar_04_1508,59.9714442084,duckFrog,001,12,
duck,quackR.wav,-20,landoltCR.png,V2,duckFront.png,frogFront.png,Lcong,h,20,landoltCTop.png,,,,,5,55,455,4,,,h,0,1.03442255492,,,2020_Mar_04_1508,59.9714442084,duckFrog,001,12,
frog,wnL.wav,20,landoltCBottom.png,V2,duckFront.png,frogFront.png,HcongWN,b,-20,landoltCR.png,,,,,5,56,456,65,,,b,0,1.25123391964,,,2020_Mar_04_1508,59.9714442084,duckFrog,001,12,
frog,wnR.wav,20,landoltCTop.png,V2,duckFront.png,frogFront.png,HinCongWN,h,-20,landoltCL.png,,,,,5,57,457,27,,,h,0,1.21809101224,,,2020_Mar_04_1508,59.9714442084,duckFrog,001,12,
frog,ribbitR.wav,-20,landoltCL.png,V2,frogFront.png,duckFront.png,Hcong,h,20,landoltCTop.png,,,,,5,58,458,44,,,h,0,0.717449722259,,,2020_Mar_04_1508,59.9714442084,duckFrog,001,12,
frog,ribbitL.wav,20,landoltCBottom.png,V2,duckFront.png,frogFront.png,Hcong,b,-20,landoltCL.png,,,,,5,59,459,16,,,b,0,1.23448596915,,,2020_Mar_04_1508,59.9714442084,duckFrog,001,12,
frog,wnR.wav,20,landoltCTop.png,V2,duckFront.png,frogFront.png,HinCongWN,h,-20,landoltCL.png,,,,,5,60,460,43,,,h,0,1.33507300881,,,2020_Mar_04_1508,59.9714442084,duckFrog,001,12,
duck,wnR.wav,-20,landoltCL.png,V2,duckFront.png,frogFront.png,LcongWN,b,20,landoltCBottom.png,,,,,5,61,461,13,,,b,0,0.850947639294,,,2020_Mar_04_1508,59.9714442084,duckFrog,001,12,
frog,ribbitL.wav,20,landoltCBottom.png,V2,duckFront.png,frogFront.png,Hcong,b,-20,landoltCL.png,,,,,5,62,462,64,,,b,0,0.767464842676,,,2020_Mar_04_1508,59.9714442084,duckFrog,001,12,
frog,ribbitR.wav,-20,landoltCL.png,V2,frogFront.png,duckFront.png,Hcong,b,20,landoltCBottom.png,,,,,5,63,463,52,,,b,0,0.700810272363,,,2020_Mar_04_1508,59.9714442084,duckFrog,001,12,
frog,ribbitR.wav,-20,landoltCL.png,V2,frogFront.png,duckFront.png,Hcong,h,20,landoltCTop.png,,,,,5,64,464,28,,,h,0,0.851148145506,,,2020_Mar_04_1508,59.9714442084,duckFrog,001,12,
frog,quackL.wav,-20,landoltCL.png,V2,frogFront.png,duckFront.png,HinCong,b,20,landoltCBottom.png,,,,,5,65,465,22,,,b,0,1.48496221725,,,2020_Mar_04_1508,59.9714442084,duckFrog,001,12,
frog,quackR.wav,20,landoltCBottom.png,V2,duckFront.png,frogFront.png,HinCong,b,-20,landoltCL.png,,,,,5,66,466,50,,,b,0,1.20110883235,,,2020_Mar_04_1508,59.9714442084,duckFrog,001,12,
frog,wnR.wav,-20,landoltCR.png,V2,frogFront.png,duckFront.png,HcongWN,b,20,landoltCBottom.png,,,,,5,67,467,53,,,b,0,0.867601384845,,,2020_Mar_04_1508,59.9714442084,duckFrog,001,12,
frog,quackL.wav,-20,landoltCL.png,V2,frogFront.png,duckFront.png,HinCong,h,20,landoltCTop.png,,,,,5,68,468,30,,,h,0,1.25144762188,,,2020_Mar_04_1508,59.9714442084,duckFrog,001,12,
frog,ribbitL.wav,20,landoltCTop.png,V2,duckFront.png,frogFront.png,Hcong,h,-20,landoltCR.png,,,,,5,69,469,56,,,h,0,1.28465137762,,,2020_Mar_04_1508,59.9714442084,duckFrog,001,12,
frog,wnL.wav,20,landoltCTop.png,V2,duckFront.png,frogFront.png,HcongWN,h,-20,landoltCL.png,,,,,5,70,470,73,,,h,0,1.13472991224,,,2020_Mar_04_1508,59.9714442084,duckFrog,001,12,
frog,quackL.wav,-20,landoltCL.png,V2,frogFront.png,duckFront.png,HinCong,h,20,landoltCTop.png,,,,,5,71,471,62,,,h,0,0.767400328798,,,2020_Mar_04_1508,59.9714442084,duckFrog,001,12,
duck,ribbitR.wav,20,landoltCBottom.png,V2,frogFront.png,duckFront.png,LinCong,b,-20,landoltCR.png,,,,,5,72,472,10,,,b,0,1.43474402468,,,2020_Mar_04_1508,59.9714442084,duckFrog,001,12,
frog,ribbitL.wav,20,landoltCBottom.png,V2,duckFront.png,frogFront.png,Hcong,b,-20,landoltCL.png,,,,,5,73,473,32,,,b,0,0.751059622184,,,2020_Mar_04_1508,59.9714442084,duckFrog,001,12,
duck,wnR.wav,20,landoltCBottom.png,V2,frogFront.png,duckFront.png,LinCongWN,b,-20,landoltCL.png,,,,,5,74,474,11,,,b,0,1.2014119743,,,2020_Mar_04_1508,59.9714442084,duckFrog,001,12,
frog,ribbitL.wav,20,landoltCTop.png,V2,duckFront.png,frogFront.png,Hcong,h,-20,landoltCR.png,,,,,5,75,475,24,,,h,0,0.83445884398,,,2020_Mar_04_1508,59.9714442084,duckFrog,001,12,
frog,quackL.wav,-20,landoltCL.png,V2,frogFront.png,duckFront.png,HinCong,h,20,landoltCTop.png,,,,,5,76,476,78,,,h,0,0.900934901467,,,2020_Mar_04_1508,59.9714442084,duckFrog,001,12,
duck,wnL.wav,20,landoltCTop.png,V2,frogFront.png,duckFront.png,LcongWN,h,-20,landoltCR.png,,,,,5,77,477,1,,,h,0,1.21788244176,,,2020_Mar_04_1508,59.9714442084,duckFrog,001,12,
frog,wnR.wav,20,landoltCBottom.png,V2,duckFront.png,frogFront.png,HinCongWN,b,-20,landoltCR.png,,,,,5,78,478,35,,,b,0,1.28441788134,,,2020_Mar_04_1508,59.9714442084,duckFrog,001,12,
duck,wnL.wav,-20,landoltCL.png,V2,duckFront.png,frogFront.png,LinCongWN,h,20,landoltCTop.png,,,,,5,79,479,7,,,h,0,0.934307639574,,,2020_Mar_04_1508,59.9714442084,duckFrog,001,12,
duck,wnR.wav,20,landoltCTop.png,V2,frogFront.png,duckFront.png,LinCongWN,h,-20,landoltCR.png,,,,,6,0,480,3,,,h,0,1.43471763266,,,2020_Mar_04_1508,59.9714442084,duckFrog,001,12,
frog,wnR.wav,-20,landoltCR.png,V2,frogFront.png,duckFront.png,HcongWN,h,20,landoltCTop.png,,,,,6,1,481,61,,,h,0,0.817792268965,,,2020_Mar_04_1508,59.9714442084,duckFrog,001,12,
frog,quackL.wav,-20,landoltCL.png,V2,frogFront.png,duckFront.png,HinCong,h,20,landoltCTop.png,,,,,6,2,482,46,,,h,0,1.43492803586,,,2020_Mar_04_1508,59.9714442084,duckFrog,001,12,
duck,wnR.wav,-20,landoltCL.png,V2,duckFront.png,frogFront.png,LcongWN,h,20,landoltCTop.png,,,,,6,3,483,5,,,h,0,0.951198913506,,,2020_Mar_04_1508,59.9714442084,duckFrog,001,12,
duck,wnL.wav,20,landoltCTop.png,V2,frogFront.png,duckFront.png,LcongWN,h,-20,landoltCR.png,,,,,6,4,484,1,,,h,0,1.28458613061,,,2020_Mar_04_1508,59.9714442084,duckFrog,001,12,
frog,ribbitL.wav,20,landoltCTop.png,V2,duckFront.png,frogFront.png,Hcong,h,-20,landoltCR.png,,,,,6,5,485,56,,,h,0,1.35153394585,,,2020_Mar_04_1508,59.9714442084,duckFrog,001,12,
frog,ribbitL.wav,20,landoltCTop.png,V2,duckFront.png,frogFront.png,Hcong,h,-20,landoltCR.png,,,,,6,6,486,40,,,h,0,1.46849468219,,,2020_Mar_04_1508,59.9714442084,duckFrog,001,12,
frog,ribbitR.wav,-20,landoltCL.png,V2,frogFront.png,duckFront.png,Hcong,h,20,landoltCTop.png,,,,,6,7,487,76,,,h,0,0.6173864913,,,2020_Mar_04_1508,59.9714442084,duckFrog,001,12,
frog,wnL.wav,-20,landoltCR.png,V2,frogFront.png,duckFront.png,HinCongWN,b,20,landoltCBottom.png,,,,,6,8,488,55,,,h,0,0.68433907177,,,2020_Mar_04_1508,59.9714442084,duckFrog,001,12,
frog,wnL.wav,20,landoltCBottom.png,V2,duckFront.png,frogFront.png,HcongWN,b,-20,landoltCR.png,,,,,6,9,489,17,,,b,0,1.21785531662,,,2020_Mar_04_1508,59.9714442084,duckFrog,001,12,
frog,wnR.wav,-20,landoltCR.png,V2,frogFront.png,duckFront.png,HcongWN,h,20,landoltCTop.png,,,,,6,10,490,45,,,h,0,0.767516160529,,,2020_Mar_04_1508,59.9714442084,duckFrog,001,12,
duck,wnR.wav,-20,landoltCL.png,V2,duckFront.png,frogFront.png,LcongWN,b,20,landoltCBottom.png,,,,,6,11,491,13,,,b,0,0.734376552136,,,2020_Mar_04_1508,59.9714442084,duckFrog,001,12,
frog,wnL.wav,20,landoltCBottom.png,V2,duckFront.png,frogFront.png,HcongWN,b,-20,landoltCR.png,,,,,6,12,492,49,,,b,0,0.917649128794,,,2020_Mar_04_1508,59.9714442084,duckFrog,001,12,
frog,wnR.wav,-20,landoltCR.png,V2,frogFront.png,duckFront.png,HcongWN,b,20,landoltCBottom.png,,,,,6,13,493,69,,,b,0,0.75091996431,,,2020_Mar_04_1508,59.9714442084,duckFrog,001,12,
frog,ribbitL.wav,20,landoltCTop.png,V2,duckFront.png,frogFront.png,Hcong,h,-20,landoltCR.png,,,,,6,14,494,72,,,h,0,0.951000606641,,,2020_Mar_04_1508,59.9714442084,duckFrog,001,12,
frog,wnR.wav,-20,landoltCR.png,V2,frogFront.png,duckFront.png,HcongWN,h,20,landoltCTop.png,,,,,6,15,495,77,,,h,0,0.717466583825,,,2020_Mar_04_1508,59.9714442084,duckFrog,001,12,
frog,ribbitL.wav,20,landoltCBottom.png,V2,duckFront.png,frogFront.png,Hcong,b,-20,landoltCL.png,,,,,6,16,496,48,,,b,0,0.717531464237,,,2020_Mar_04_1508,59.9714442084,duckFrog,001,12,
frog,wnL.wav,-20,landoltCR.png,V2,frogFront.png,duckFront.png,HinCongWN,h,20,landoltCTop.png,,,,,6,17,497,79,,,h,0,0.717490776529,,,2020_Mar_04_1508,59.9714442084,duckFrog,001,12,
frog,wnR.wav,20,landoltCBottom.png,V2,duckFront.png,frogFront.png,HinCongWN,b,-20,landoltCR.png,,,,,6,18,498,51,,,b,0,1.25121595839,,,2020_Mar_04_1508,59.9714442084,duckFrog,001,12,
frog,quackL.wav,-20,landoltCL.png,V2,frogFront.png,duckFront.png,HinCong,b,20,landoltCBottom.png,,,,,6,19,499,38,,,b,0,0.667415540898,,,2020_Mar_04_1508,59.9714442084,duckFrog,001,12,
frog,ribbitR.wav,-20,landoltCL.png,V2,frogFront.png,duckFront.png,Hcong,h,20,landoltCTop.png,,,,,6,20,500,28,,,h,0,1.11801935051,,,2020_Mar_04_1508,59.9714442084,duckFrog,001,12,
frog,wnL.wav,20,landoltCBottom.png,V2,duckFront.png,frogFront.png,HcongWN,b,-20,landoltCR.png,,,,,6,21,501,65,,,b,0,0.800873869855,,,2020_Mar_04_1508,59.9714442084,duckFrog,001,12,
frog,wnR.wav,-20,landoltCR.png,V2,frogFront.png,duckFront.png,HcongWN,b,20,landoltCBottom.png,,,,,6,22,502,53,,,b,0,0.800881200994,,,2020_Mar_04_1508,59.9714442084,duckFrog,001,12,
frog,ribbitR.wav,-20,landoltCL.png,V2,frogFront.png,duckFront.png,Hcong,b,20,landoltCBottom.png,,,,,6,23,503,20,,,b,0,0.734333665052,,,2020_Mar_04_1508,59.9714442084,duckFrog,001,12,
frog,wnR.wav,-20,landoltCR.png,V2,frogFront.png,duckFront.png,HcongWN,h,20,landoltCTop.png,,,,,6,24,504,29,,,h,0,0.884518684295,,,2020_Mar_04_1508,59.9714442084,duckFrog,001,12,
frog,quackL.wav,-20,landoltCL.png,V2,frogFront.png,duckFront.png,HinCong,h,20,landoltCTop.png,,,,,6,25,505,62,,,h,0,0.851318960689,,,2020_Mar_04_1508,59.9714442084,duckFrog,001,12,
frog,quackL.wav,-20,landoltCL.png,V2,frogFront.png,duckFront.png,HinCong,b,20,landoltCBottom.png,,,,,6,26,506,22,,,b,0,0.817805098428,,,2020_Mar_04_1508,59.9714442084,duckFrog,001,12,
frog,wnR.wav,20,landoltCBottom.png,V2,duckFront.png,frogFront.png,HinCongWN,b,-20,landoltCR.png,,,,,6,27,507,19,,,b,0,1.38465339367,,,2020_Mar_04_1508,59.9714442084,duckFrog,001,12,
duck,ribbitL.wav,-20,landoltCR.png,V2,duckFront.png,frogFront.png,LinCong,b,20,landoltCBottom.png,,,,,6,28,508,14,,,b,0,0.984265210689,,,2020_Mar_04_1508,59.9714442084,duckFrog,001,12,
frog,quackR.wav,20,landoltCTop.png,V2,duckFront.png,frogFront.png,HinCong,h,-20,landoltCR.png,,,,,6,29,509,26,,,h,0,1.50141765591,,,2020_Mar_04_1508,59.9714442084,duckFrog,001,12,
frog,wnL.wav,-20,landoltCR.png,V2,frogFront.png,duckFront.png,HinCongWN,b,20,landoltCBottom.png,,,,,6,30,510,39,,,b,0,1.06773847685,,,2020_Mar_04_1508,59.9714442084,duckFrog,001,12,
duck,quackR.wav,-20,landoltCR.png,V2,duckFront.png,frogFront.png,Lcong,b,20,landoltCBottom.png,,,,,6,31,511,12,,,b,0,0.734411374957,,,2020_Mar_04_1508,59.9714442084,duckFrog,001,12,
frog,wnR.wav,-20,landoltCR.png,V2,frogFront.png,duckFront.png,HcongWN,b,20,landoltCBottom.png,,,,,6,32,512,21,,,b,0,1.01861298818,,,2020_Mar_04_1508,59.9714442084,duckFrog,001,12,
frog,ribbitL.wav,20,landoltCTop.png,V2,duckFront.png,frogFront.png,Hcong,h,-20,landoltCR.png,,,,,6,33,513,24,,,h,0,2.05186916143,,,2020_Mar_04_1508,59.9714442084,duckFrog,001,12,
frog,wnL.wav,20,landoltCTop.png,V2,duckFront.png,frogFront.png,HcongWN,h,-20,landoltCL.png,,,,,6,34,514,57,,,h,0,1.16804180207,,,2020_Mar_04_1508,59.9714442084,duckFrog,001,12,
frog,quackR.wav,20,landoltCBottom.png,V2,duckFront.png,frogFront.png,HinCong,b,-20,landoltCL.png,,,,,6,35,515,34,,,b,0,1.31817513684,,,2020_Mar_04_1508,59.9714442084,duckFrog,001,12,
duck,ribbitR.wav,20,landoltCTop.png,V2,frogFront.png,duckFront.png,LinCong,h,-20,landoltCL.png,,,,,6,36,516,2,,,h,0,1.41917931745,,,2020_Mar_04_1508,59.9714442084,duckFrog,001,12,
frog,quackR.wav,20,landoltCTop.png,V2,duckFront.png,frogFront.png,HinCong,h,-20,landoltCR.png,,,,,6,37,517,58,,,h,0,1.33486847047,,,2020_Mar_04_1508,59.9714442084,duckFrog,001,12,
frog,quackR.wav,20,landoltCBottom.png,V2,duckFront.png,frogFront.png,HinCong,b,-20,landoltCL.png,,,,,6,38,518,66,,,b,0,1.48497468015,,,2020_Mar_04_1508,59.9714442084,duckFrog,001,12,
duck,quackR.wav,-20,landoltCR.png,V2,duckFront.png,frogFront.png,Lcong,h,20,landoltCTop.png,,,,,6,39,519,4,,,h,0,0.867568028247,,,2020_Mar_04_1508,59.9714442084,duckFrog,001,12,
frog,quackR.wav,20,landoltCTop.png,V2,duckFront.png,frogFront.png,HinCong,h,-20,landoltCR.png,,,,,6,40,520,74,,,h,0,0.684088713926,,,2020_Mar_04_1508,59.9714442084,duckFrog,001,12,
duck,wnL.wav,-20,landoltCL.png,V2,duckFront.png,frogFront.png,LinCongWN,b,20,landoltCBottom.png,,,,,6,41,521,15,,,b,0,1.26791772281,,,2020_Mar_04_1508,59.9714442084,duckFrog,001,12,
frog,quackL.wav,-20,landoltCL.png,V2,frogFront.png,duckFront.png,HinCong,b,20,landoltCBottom.png,,,,,6,42,522,54,,,b,0,1.18478498733,,,2020_Mar_04_1508,59.9714442084,duckFrog,001,12,
frog,wnL.wav,20,landoltCBottom.png,V2,duckFront.png,frogFront.png,HcongWN,b,-20,landoltCR.png,,,,,6,43,523,33,,,b,0,0.767520925787,,,2020_Mar_04_1508,59.9714442084,duckFrog,001,12,
frog,wnR.wav,-20,landoltCR.png,V2,frogFront.png,duckFront.png,HcongWN,b,20,landoltCBottom.png,,,,,6,44,524,37,,,b,0,0.617401886644,,,2020_Mar_04_1508,59.9714442084,duckFrog,001,12,
frog,ribbitR.wav,-20,landoltCL.png,V2,frogFront.png,duckFront.png,Hcong,h,20,landoltCTop.png,,,,,6,45,525,44,,,h,0,0.784425762307,,,2020_Mar_04_1508,59.9714442084,duckFrog,001,12,
frog,ribbitL.wav,20,landoltCBottom.png,V2,duckFront.png,frogFront.png,Hcong,b,-20,landoltCL.png,,,,,6,46,526,32,,,b,0,0.734146354866,,,2020_Mar_04_1508,59.9714442084,duckFrog,001,12,
frog,ribbitR.wav,-20,landoltCL.png,V2,frogFront.png,duckFront.png,Hcong,b,20,landoltCBottom.png,,,,,6,47,527,68,,,b,0,0.634757220687,,,2020_Mar_04_1508,59.9714442084,duckFrog,001,12,
frog,ribbitL.wav,20,landoltCBottom.png,V2,duckFront.png,frogFront.png,Hcong,b,-20,landoltCL.png,,,,,6,48,528,64,,,b,0,1.35131767771,,,2020_Mar_04_1508,59.9714442084,duckFrog,001,12,
duck,ribbitR.wav,20,landoltCBottom.png,V2,frogFront.png,duckFront.png,LinCong,b,-20,landoltCR.png,,,,,6,49,529,10,,,b,0,1.21808404766,,,2020_Mar_04_1508,59.9714442084,duckFrog,001,12,
frog,wnR.wav,20,landoltCBottom.png,V2,duckFront.png,frogFront.png,HinCongWN,b,-20,landoltCR.png,,,,,6,50,530,67,,,b,0,1.58506356998,,,2020_Mar_04_1508,59.9714442084,duckFrog,001,12,
frog,quackL.wav,-20,landoltCL.png,V2,frogFront.png,duckFront.png,HinCong,h,20,landoltCTop.png,,,,,6,51,531,30,,,h,0,0.800868738093,,,2020_Mar_04_1508,59.9714442084,duckFrog,001,12,
frog,wnR.wav,20,landoltCTop.png,V2,duckFront.png,frogFront.png,HinCongWN,h,-20,landoltCL.png,,,,,6,52,532,43,,,h,0,1.3513096135,,,2020_Mar_04_1508,59.9714442084,duckFrog,001,12,
frog,quackL.wav,-20,landoltCL.png,V2,frogFront.png,duckFront.png,HinCong,b,20,landoltCBottom.png,,,,,6,53,533,70,,,b,0,0.851125419023,,,2020_Mar_04_1508,59.9714442084,duckFrog,001,12,
frog,wnL.wav,-20,landoltCR.png,V2,frogFront.png,duckFront.png,HinCongWN,b,20,landoltCBottom.png,,,,,6,54,534,71,,,b,0,1.03460546647,,,2020_Mar_04_1508,59.9714442084,duckFrog,001,12,
frog,wnL.wav,-20,landoltCR.png,V2,frogFront.png,duckFront.png,HinCongWN,h,20,landoltCTop.png,,,,,6,55,535,47,,,h,0,0.917862097907,,,2020_Mar_04_1508,59.9714442084,duckFrog,001,12,
frog,quackR.wav,20,landoltCBottom.png,V2,duckFront.png,frogFront.png,HinCong,b,-20,landoltCL.png,,,,,6,56,536,18,,,b,0,1.11775066482,,,2020_Mar_04_1508,59.9714442084,duckFrog,001,12,
frog,quackL.wav,-20,landoltCL.png,V2,frogFront.png,duckFront.png,HinCong,h,20,landoltCTop.png,,,,,6,57,537,78,,,h,0,0.767479138362,,,2020_Mar_04_1508,59.9714442084,duckFrog,001,12,
frog,ribbitR.wav,-20,landoltCL.png,V2,frogFront.png,duckFront.png,Hcong,b,20,landoltCBottom.png,,,,,6,58,538,52,,,b,0,0.984588146675,,,2020_Mar_04_1508,59.9714442084,duckFrog,001,12,
duck,quackL.wav,20,landoltCBottom.png,V2,frogFront.png,duckFront.png,Lcong,b,-20,landoltCR.png,,,,,6,59,539,8,,,b,0,1.45129770041,,,2020_Mar_04_1508,59.9714442084,duckFrog,001,12,
frog,wnR.wav,20,landoltCTop.png,V2,duckFront.png,frogFront.png,HinCongWN,h,-20,landoltCL.png,,,,,6,60,540,75,,,h,0,1.38484107039,,,2020_Mar_04_1508,59.9714442084,duckFrog,001,12,
duck,ribbitL.wav,-20,landoltCR.png,V2,duckFront.png,frogFront.png,LinCong,h,20,landoltCTop.png,,,,,6,61,541,6,,,h,0,0.884275657561,,,2020_Mar_04_1508,59.9714442084,duckFrog,001,12,
frog,wnL.wav,-20,landoltCR.png,V2,frogFront.png,duckFront.png,HinCongWN,h,20,landoltCTop.png,,,,,6,62,542,31,,,h,0,0.784441524214,,,2020_Mar_04_1508,59.9714442084,duckFrog,001,12,
frog,quackR.wav,20,landoltCTop.png,V2,duckFront.png,frogFront.png,HinCong,h,-20,landoltCR.png,,,,,6,63,543,42,,,h,0,1.58476995851,,,2020_Mar_04_1508,59.9714442084,duckFrog,001,12,
frog,wnL.wav,-20,landoltCR.png,V2,frogFront.png,duckFront.png,HinCongWN,h,20,landoltCTop.png,,,,,6,64,544,63,,,h,0,0.734126560827,,,2020_Mar_04_1508,59.9714442084,duckFrog,001,12,
frog,wnR.wav,20,landoltCTop.png,V2,duckFront.png,frogFront.png,HinCongWN,h,-20,landoltCL.png,,,,,6,65,545,27,,,h,0,1.18462590195,,,2020_Mar_04_1508,59.9714442084,duckFrog,001,12,
frog,quackR.wav,20,landoltCBottom.png,V2,duckFront.png,frogFront.png,HinCong,b,-20,landoltCL.png,,,,,6,66,546,50,,,b,0,1.18476299394,,,2020_Mar_04_1508,59.9714442084,duckFrog,001,12,
