targetAnim,audioPos,distPos,visualL,expLab,picR,picL,condLabel,corrAns,targetPos,visualR,pracTrials1a.thisRepN,pracTrials1a.thisTrialN,pracTrials1a.thisN,pracTrials1a.thisIndex,exp1a.thisRepN,exp1a.thisTrialN,exp1a.thisN,exp1a.thisIndex,pressToCont.keys,pressToCont.rt,key_resp_2.keys,key_resp_2.corr,key_resp_2.rt,spaceToBegin.keys,spaceToBegin.rt,date,frameRate,expName,session,participant,
,,,,,,,,,,,,,,,,,,,space,12.7105133802,,,,,,2020_Mar_04_1608,59.9491724364,duckFrog,001,13,
frog,wnR.wav,20,landoltCBottom.png,prac,duckFront.png,frogFront.png,LinCongWN,b,-20,landoltCR.png,0,0,0,2,,,,,,,b,0,5.05469897494,,,2020_Mar_04_1608,59.9491724364,duckFrog,001,13,
duck,wnL.wav,20,landoltCBottom.png,prac,frogFront.png,duckFront.png,HcongWN,b,-20,landoltCL.png,0,1,1,4,,,,,,,b,0,1.68512276883,,,2020_Mar_04_1608,59.9491724364,duckFrog,001,13,
duck,quackL.wav,20,landoltCTop.png,prac,frogFront.png,duckFront.png,Hcong,h,-20,landoltCL.png,0,2,2,0,,,,,,,h,0,2.21888607251,,,2020_Mar_04_1608,59.9491724364,duckFrog,001,13,
frog,ribbitR.wav,-20,landoltCL.png,prac,frogFront.png,duckFront.png,Lcong,b,20,landoltCBottom.png,0,3,3,3,,,,,,,b,0,2.36877454782,,,2020_Mar_04_1608,59.9491724364,duckFrog,001,13,
duck,ribbitL.wav,-20,landoltCR.png,prac,duckFront.png,frogFront.png,HinCong,h,20,landoltCTop.png,0,4,4,1,,,,,,,h,0,2.03537413469,,,2020_Mar_04_1608,59.9491724364,duckFrog,001,13,
,,,,,,,,,,,,,,,,,,,,,,,,space,6.63907341936,2020_Mar_04_1608,59.9491724364,duckFrog,001,13,
duck,wnL.wav,-20,landoltCL.png,V1,duckFront.png,frogFront.png,HinCongWN,b,20,landoltCBottom.png,,,,,0,0,0,79,,,b,0,1.20137311934,,,2020_Mar_04_1608,59.9491724364,duckFrog,001,13,
frog,wnR.wav,-20,landoltCR.png,V1,frogFront.png,duckFront.png,LcongWN,b,20,landoltCBottom.png,,,,,0,1,1,21,,,b,0,1.3181839342,,,2020_Mar_04_1608,59.9491724364,duckFrog,001,13,
frog,wnR.wav,20,landoltCTop.png,V1,duckFront.png,frogFront.png,LinCongWN,h,-20,landoltCL.png,,,,,0,2,2,27,,,h,0,1.58481981017,,,2020_Mar_04_1608,59.9491724364,duckFrog,001,13,
duck,ribbitL.wav,-20,landoltCR.png,V1,duckFront.png,frogFront.png,HinCong,b,20,landoltCBottom.png,,,,,0,3,3,62,,,b,0,1.25126067823,,,2020_Mar_04_1608,59.9491724364,duckFrog,001,13,
duck,wnL.wav,-20,landoltCL.png,V1,duckFront.png,frogFront.png,HinCongWN,h,20,landoltCTop.png,,,,,0,4,4,39,,,h,0,1.53501655918,,,2020_Mar_04_1608,59.9491724364,duckFrog,001,13,
duck,quackR.wav,-20,landoltCR.png,V1,duckFront.png,frogFront.png,Hcong,h,20,landoltCTop.png,,,,,0,5,5,52,,,h,0,1.41825449627,,,2020_Mar_04_1608,59.9491724364,duckFrog,001,13,
frog,quackR.wav,20,landoltCTop.png,V1,duckFront.png,frogFront.png,LinCong,h,-20,landoltCR.png,,,,,0,6,6,26,,,h,0,1.61818814962,,,2020_Mar_04_1608,59.9491724364,duckFrog,001,13,
duck,wnR.wav,-20,landoltCL.png,V1,duckFront.png,frogFront.png,HcongWN,h,20,landoltCTop.png,,,,,0,7,7,53,,,h,0,1.78501738393,,,2020_Mar_04_1608,59.9491724364,duckFrog,001,13,
duck,ribbitL.wav,-20,landoltCR.png,V1,duckFront.png,frogFront.png,HinCong,h,20,landoltCTop.png,,,,,0,8,8,6,,,h,0,1.55165857496,,,2020_Mar_04_1608,59.9491724364,duckFrog,001,13,
duck,ribbitR.wav,20,landoltCTop.png,V1,frogFront.png,duckFront.png,HinCong,h,-20,landoltCL.png,,,,,0,9,9,34,,,h,0,2.06854746628,,,2020_Mar_04_1608,59.9491724364,duckFrog,001,13,
duck,ribbitL.wav,-20,landoltCR.png,V1,duckFront.png,frogFront.png,HinCong,h,20,landoltCTop.png,,,,,0,10,10,70,,,h,0,1.21784725238,,,2020_Mar_04_1608,59.9491724364,duckFrog,001,13,
duck,wnR.wav,-20,landoltCL.png,V1,duckFront.png,frogFront.png,HcongWN,b,20,landoltCBottom.png,,,,,0,11,11,77,,,b,0,1.96866971278,,,2020_Mar_04_1608,59.9491724364,duckFrog,001,13,
duck,ribbitR.wav,20,landoltCTop.png,V1,frogFront.png,duckFront.png,HinCong,h,-20,landoltCL.png,,,,,0,12,12,50,,,h,0,1.63485289185,,,2020_Mar_04_1608,59.9491724364,duckFrog,001,13,
duck,quackL.wav,20,landoltCBottom.png,V1,frogFront.png,duckFront.png,Hcong,b,-20,landoltCR.png,,,,,0,13,13,72,,,b,0,1.63513697288,,,2020_Mar_04_1608,59.9491724364,duckFrog,001,13,
duck,quackR.wav,-20,landoltCR.png,V1,duckFront.png,frogFront.png,Hcong,b,20,landoltCBottom.png,,,,,0,14,14,76,,,b,0,1.05105760612,,,2020_Mar_04_1608,59.9491724364,duckFrog,001,13,
duck,quackL.wav,20,landoltCBottom.png,V1,frogFront.png,duckFront.png,Hcong,b,-20,landoltCR.png,,,,,0,15,15,8,,,b,0,1.40139108058,,,2020_Mar_04_1608,59.9491724364,duckFrog,001,13,
frog,wnR.wav,20,landoltCBottom.png,V1,duckFront.png,frogFront.png,LinCongWN,b,-20,landoltCR.png,,,,,0,16,16,19,,,b,0,1.26818164325,,,2020_Mar_04_1608,59.9491724364,duckFrog,001,13,
duck,quackR.wav,-20,landoltCR.png,V1,duckFront.png,frogFront.png,Hcong,h,20,landoltCTop.png,,,,,0,17,17,36,,,h,0,1.50142901918,,,2020_Mar_04_1608,59.9491724364,duckFrog,001,13,
duck,ribbitR.wav,20,landoltCTop.png,V1,frogFront.png,duckFront.png,HinCong,h,-20,landoltCL.png,,,,,0,18,18,2,,,h,0,1.30124097585,,,2020_Mar_04_1608,59.9491724364,duckFrog,001,13,
frog,quackR.wav,20,landoltCBottom.png,V1,duckFront.png,frogFront.png,LinCong,b,-20,landoltCL.png,,,,,0,19,19,18,,,b,0,1.41825742874,,,2020_Mar_04_1608,59.9491724364,duckFrog,001,13,
duck,wnL.wav,-20,landoltCL.png,V1,duckFront.png,frogFront.png,HinCongWN,h,20,landoltCTop.png,,,,,0,20,20,55,,,h,0,2.18529706626,,,2020_Mar_04_1608,59.9491724364,duckFrog,001,13,
frog,quackL.wav,-20,landoltCL.png,V1,frogFront.png,duckFront.png,LinCong,h,20,landoltCTop.png,,,,,0,21,21,30,,,h,0,1.68510773999,,,2020_Mar_04_1608,59.9491724364,duckFrog,001,13,
duck,wnL.wav,20,landoltCBottom.png,V1,frogFront.png,duckFront.png,HcongWN,b,-20,landoltCL.png,,,,,0,22,22,57,,,b,0,1.80162384373,,,2020_Mar_04_1608,59.9491724364,duckFrog,001,13,
duck,quackL.wav,20,landoltCTop.png,V1,frogFront.png,duckFront.png,Hcong,h,-20,landoltCL.png,,,,,0,23,23,64,,,h,0,1.25143002719,,,2020_Mar_04_1608,59.9491724364,duckFrog,001,13,
duck,wnR.wav,20,landoltCTop.png,V1,frogFront.png,duckFront.png,HinCongWN,h,-20,landoltCR.png,,,,,0,24,24,51,,,h,0,1.51832835734,,,2020_Mar_04_1608,59.9491724364,duckFrog,001,13,
frog,ribbitR.wav,-20,landoltCL.png,V1,frogFront.png,duckFront.png,Lcong,h,20,landoltCTop.png,,,,,0,25,25,28,,,h,0,2.11858311386,,,2020_Mar_04_1608,59.9491724364,duckFrog,001,13,
duck,wnR.wav,20,landoltCBottom.png,V1,frogFront.png,duckFront.png,HinCongWN,b,-20,landoltCL.png,,,,,0,26,26,75,,,b,0,1.40138741504,,,2020_Mar_04_1608,59.9491724364,duckFrog,001,13,
duck,wnR.wav,-20,landoltCL.png,V1,duckFront.png,frogFront.png,HcongWN,b,20,landoltCBottom.png,,,,,0,27,27,13,,,b,0,1.38465779237,,,2020_Mar_04_1608,59.9491724364,duckFrog,001,13,
duck,wnR.wav,20,landoltCTop.png,V1,frogFront.png,duckFront.png,HinCongWN,h,-20,landoltCR.png,,,,,0,28,28,35,,,h,0,1.46807607505,,,2020_Mar_04_1608,59.9491724364,duckFrog,001,13,
duck,quackR.wav,-20,landoltCR.png,V1,duckFront.png,frogFront.png,Hcong,b,20,landoltCBottom.png,,,,,0,29,29,44,,,b,0,1.58480734724,,,2020_Mar_04_1608,59.9491724364,duckFrog,001,13,
duck,wnR.wav,20,landoltCTop.png,V1,frogFront.png,duckFront.png,HinCongWN,h,-20,landoltCR.png,,,,,0,30,30,3,,,h,0,1.48475401333,,,2020_Mar_04_1608,59.9491724364,duckFrog,001,13,
frog,wnR.wav,-20,landoltCR.png,V1,frogFront.png,duckFront.png,LcongWN,h,20,landoltCTop.png,,,,,0,31,31,29,,,h,0,1.65153412914,,,2020_Mar_04_1608,59.9491724364,duckFrog,001,13,
duck,ribbitR.wav,20,landoltCBottom.png,V1,frogFront.png,duckFront.png,HinCong,b,-20,landoltCR.png,,,,,0,32,32,74,,,b,0,1.91840753346,,,2020_Mar_04_1608,59.9491724364,duckFrog,001,13,
duck,wnL.wav,-20,landoltCL.png,V1,duckFront.png,frogFront.png,HinCongWN,b,20,landoltCBottom.png,,,,,0,33,33,47,,,b,0,1.83501454312,,,2020_Mar_04_1608,59.9491724364,duckFrog,001,13,
duck,quackL.wav,20,landoltCTop.png,V1,frogFront.png,duckFront.png,Hcong,h,-20,landoltCL.png,,,,,0,34,34,32,,,h,0,2.48553917662,,,2020_Mar_04_1608,59.9491724364,duckFrog,001,13,
duck,ribbitL.wav,-20,landoltCR.png,V1,duckFront.png,frogFront.png,HinCong,h,20,landoltCTop.png,,,,,0,35,35,54,,,h,0,1.25121925739,,,2020_Mar_04_1608,59.9491724364,duckFrog,001,13,
duck,wnR.wav,-20,landoltCL.png,V1,duckFront.png,frogFront.png,HcongWN,b,20,landoltCBottom.png,,,,,0,36,36,61,,,b,0,1.28479323484,,,2020_Mar_04_1608,59.9491724364,duckFrog,001,13,
duck,ribbitL.wav,-20,landoltCR.png,V1,duckFront.png,frogFront.png,HinCong,b,20,landoltCBottom.png,,,,,0,37,37,14,,,b,0,1.40211869453,,,2020_Mar_04_1608,59.9491724364,duckFrog,001,13,
duck,wnL.wav,20,landoltCBottom.png,V1,frogFront.png,duckFront.png,HcongWN,b,-20,landoltCL.png,,,,,0,38,38,73,,,b,0,1.26792138838,,,2020_Mar_04_1608,59.9491724364,duckFrog,001,13,
duck,wnL.wav,20,landoltCTop.png,V1,frogFront.png,duckFront.png,HcongWN,h,-20,landoltCR.png,,,,,0,39,39,1,,,h,0,2.06871718177,,,2020_Mar_04_1608,59.9491724364,duckFrog,001,13,
frog,wnL.wav,20,landoltCTop.png,V1,duckFront.png,frogFront.png,LcongWN,h,-20,landoltCL.png,,,,,0,40,40,25,,,h,0,1.8185209826,,,2020_Mar_04_1608,59.9491724364,duckFrog,001,13,
duck,wnR.wav,-20,landoltCL.png,V1,duckFront.png,frogFront.png,HcongWN,h,20,landoltCTop.png,,,,,0,41,41,5,,,h,0,1.41802833113,,,2020_Mar_04_1608,59.9491724364,duckFrog,001,13,
duck,wnL.wav,-20,landoltCL.png,V1,duckFront.png,frogFront.png,HinCongWN,h,20,landoltCTop.png,,,,,0,42,42,71,,,h,0,1.38487919228,,,2020_Mar_04_1608,59.9491724364,duckFrog,001,13,
duck,wnR.wav,20,landoltCBottom.png,V1,frogFront.png,duckFront.png,HinCongWN,b,-20,landoltCL.png,,,,,0,43,43,43,,,b,0,1.23453765357,,,2020_Mar_04_1608,59.9491724364,duckFrog,001,13,
duck,quackL.wav,20,landoltCTop.png,V1,frogFront.png,duckFront.png,Hcong,h,-20,landoltCL.png,,,,,0,44,44,0,,,h,0,1.80187310191,,,2020_Mar_04_1608,59.9491724364,duckFrog,001,13,
duck,ribbitL.wav,-20,landoltCR.png,V1,duckFront.png,frogFront.png,HinCong,b,20,landoltCBottom.png,,,,,0,45,45,78,,,b,0,1.53473174505,,,2020_Mar_04_1608,59.9491724364,duckFrog,001,13,
duck,quackR.wav,-20,landoltCR.png,V1,duckFront.png,frogFront.png,Hcong,h,20,landoltCTop.png,,,,,0,46,46,68,,,h,0,1.35150462136,,,2020_Mar_04_1608,59.9491724364,duckFrog,001,13,
frog,wnL.wav,-20,landoltCR.png,V1,frogFront.png,duckFront.png,LinCongWN,b,20,landoltCBottom.png,,,,,0,47,47,23,,,b,0,1.30151296049,,,2020_Mar_04_1608,59.9491724364,duckFrog,001,13,
duck,ribbitL.wav,-20,landoltCR.png,V1,duckFront.png,frogFront.png,HinCong,h,20,landoltCTop.png,,,,,0,48,48,38,,,h,0,1.60170851822,,,2020_Mar_04_1608,59.9491724364,duckFrog,001,13,
duck,ribbitR.wav,20,landoltCBottom.png,V1,frogFront.png,duckFront.png,HinCong,b,-20,landoltCR.png,,,,,0,49,49,10,,,b,0,1.25120422858,,,2020_Mar_04_1608,59.9491724364,duckFrog,001,13,
duck,ribbitL.wav,-20,landoltCR.png,V1,duckFront.png,frogFront.png,HinCong,b,20,landoltCBottom.png,,,,,0,50,50,46,,,b,0,1.51826127755,,,2020_Mar_04_1608,59.9491724364,duckFrog,001,13,
duck,ribbitR.wav,20,landoltCBottom.png,V1,frogFront.png,duckFront.png,HinCong,b,-20,landoltCR.png,,,,,0,51,51,58,,,b,0,1.05114044782,,,2020_Mar_04_1608,59.9491724364,duckFrog,001,13,
duck,wnR.wav,-20,landoltCL.png,V1,duckFront.png,frogFront.png,HcongWN,b,20,landoltCBottom.png,,,,,0,52,52,45,,,b,0,1.15110837415,,,2020_Mar_04_1608,59.9491724364,duckFrog,001,13,
duck,wnL.wav,20,landoltCTop.png,V1,frogFront.png,duckFront.png,HcongWN,h,-20,landoltCR.png,,,,,0,53,53,65,,,h,0,1.38462443574,,,2020_Mar_04_1608,59.9491724364,duckFrog,001,13,
frog,wnL.wav,20,landoltCBottom.png,V1,duckFront.png,frogFront.png,LcongWN,b,-20,landoltCR.png,,,,,0,54,54,17,,,b,0,1.11801935048,,,2020_Mar_04_1608,59.9491724364,duckFrog,001,13,
duck,wnR.wav,-20,landoltCL.png,V1,duckFront.png,frogFront.png,HcongWN,h,20,landoltCTop.png,,,,,0,55,55,37,,,h,0,1.45121119314,,,2020_Mar_04_1608,59.9491724364,duckFrog,001,13,
duck,quackL.wav,20,landoltCBottom.png,V1,frogFront.png,duckFront.png,Hcong,b,-20,landoltCR.png,,,,,0,56,56,40,,,b,0,0.967662416428,,,2020_Mar_04_1608,59.9491724364,duckFrog,001,13,
duck,quackR.wav,-20,landoltCR.png,V1,duckFront.png,frogFront.png,Hcong,b,20,landoltCBottom.png,,,,,0,57,57,12,,,b,0,1.10114970335,,,2020_Mar_04_1608,59.9491724364,duckFrog,001,13,
duck,wnL.wav,20,landoltCBottom.png,V1,frogFront.png,duckFront.png,HcongWN,b,-20,landoltCL.png,,,,,0,58,58,9,,,b,0,1.26784807714,,,2020_Mar_04_1608,59.9491724364,duckFrog,001,13,
duck,wnL.wav,20,landoltCBottom.png,V1,frogFront.png,duckFront.png,HcongWN,b,-20,landoltCL.png,,,,,0,59,59,41,,,b,0,1.40160698217,,,2020_Mar_04_1608,59.9491724364,duckFrog,001,13,
duck,wnR.wav,20,landoltCBottom.png,V1,frogFront.png,duckFront.png,HinCongWN,b,-20,landoltCL.png,,,,,0,60,60,11,,,b,0,1.234739626,,,2020_Mar_04_1608,59.9491724364,duckFrog,001,13,
duck,wnL.wav,20,landoltCTop.png,V1,frogFront.png,duckFront.png,HcongWN,h,-20,landoltCR.png,,,,,0,61,61,49,,,h,0,1.06800203072,,,2020_Mar_04_1608,59.9491724364,duckFrog,001,13,
duck,wnL.wav,-20,landoltCL.png,V1,duckFront.png,frogFront.png,HinCongWN,b,20,landoltCBottom.png,,,,,0,62,62,63,,,b,0,1.58484253666,,,2020_Mar_04_1608,59.9491724364,duckFrog,001,13,
duck,ribbitR.wav,20,landoltCBottom.png,V1,frogFront.png,duckFront.png,HinCong,b,-20,landoltCR.png,,,,,0,63,63,42,,,b,0,1.10112551064,,,2020_Mar_04_1608,59.9491724364,duckFrog,001,13,
duck,quackL.wav,20,landoltCBottom.png,V1,frogFront.png,duckFront.png,Hcong,b,-20,landoltCR.png,,,,,0,64,64,56,,,b,0,1.35147639652,,,2020_Mar_04_1608,59.9491724364,duckFrog,001,13,
duck,wnL.wav,-20,landoltCL.png,V1,duckFront.png,frogFront.png,HinCongWN,b,20,landoltCBottom.png,,,,,0,65,65,15,,,b,0,1.28458613061,,,2020_Mar_04_1608,59.9491724364,duckFrog,001,13,
duck,wnR.wav,20,landoltCBottom.png,V1,frogFront.png,duckFront.png,HinCongWN,b,-20,landoltCL.png,,,,,0,66,66,59,,,b,0,1.06771978247,,,2020_Mar_04_1608,59.9491724364,duckFrog,001,13,
duck,wnR.wav,20,landoltCTop.png,V1,frogFront.png,duckFront.png,HinCongWN,h,-20,landoltCR.png,,,,,0,67,67,67,,,h,0,1.18473110357,,,2020_Mar_04_1608,59.9491724364,duckFrog,001,13,
duck,quackR.wav,-20,landoltCR.png,V1,duckFront.png,frogFront.png,Hcong,b,20,landoltCBottom.png,,,,,0,68,68,60,,,b,0,1.3012270467,,,2020_Mar_04_1608,59.9491724364,duckFrog,001,13,
duck,ribbitR.wav,20,landoltCTop.png,V1,frogFront.png,duckFront.png,HinCong,h,-20,landoltCL.png,,,,,0,69,69,66,,,h,0,0.967641156196,,,2020_Mar_04_1608,59.9491724364,duckFrog,001,13,
frog,ribbitL.wav,20,landoltCTop.png,V1,duckFront.png,frogFront.png,Lcong,h,-20,landoltCR.png,,,,,0,70,70,24,,,h,0,1.26797123998,,,2020_Mar_04_1608,59.9491724364,duckFrog,001,13,
duck,wnL.wav,-20,landoltCL.png,V1,duckFront.png,frogFront.png,HinCongWN,h,20,landoltCTop.png,,,,,0,71,71,7,,,h,0,1.21801220265,,,2020_Mar_04_1608,59.9491724364,duckFrog,001,13,
duck,quackL.wav,20,landoltCTop.png,V1,frogFront.png,duckFront.png,Hcong,h,-20,landoltCL.png,,,,,0,72,72,48,,,h,0,1.01764014817,,,2020_Mar_04_1608,59.9491724364,duckFrog,001,13,
frog,wnL.wav,-20,landoltCR.png,V1,frogFront.png,duckFront.png,LinCongWN,h,20,landoltCTop.png,,,,,0,73,73,31,,,h,0,1.56775808759,,,2020_Mar_04_1608,59.9491724364,duckFrog,001,13,
duck,quackR.wav,-20,landoltCR.png,V1,duckFront.png,frogFront.png,Hcong,h,20,landoltCTop.png,,,,,0,74,74,4,,,h,0,0.96845491085,,,2020_Mar_04_1608,59.9491724364,duckFrog,001,13,
frog,quackL.wav,-20,landoltCL.png,V1,frogFront.png,duckFront.png,LinCong,b,20,landoltCBottom.png,,,,,0,75,75,22,,,b,0,1.36821371689,,,2020_Mar_04_1608,59.9491724364,duckFrog,001,13,
duck,wnR.wav,-20,landoltCL.png,V1,duckFront.png,frogFront.png,HcongWN,h,20,landoltCTop.png,,,,,0,76,76,69,,,h,0,1.31815460973,,,2020_Mar_04_1608,59.9491724364,duckFrog,001,13,
frog,ribbitR.wav,-20,landoltCL.png,V1,frogFront.png,duckFront.png,Lcong,b,20,landoltCBottom.png,,,,,0,77,77,20,,,b,0,1.20104725091,,,2020_Mar_04_1608,59.9491724364,duckFrog,001,13,
duck,wnL.wav,20,landoltCTop.png,V1,frogFront.png,duckFront.png,HcongWN,h,-20,landoltCR.png,,,,,0,78,78,33,,,h,0,1.28456230447,,,2020_Mar_04_1608,59.9491724364,duckFrog,001,13,
frog,ribbitL.wav,20,landoltCBottom.png,V1,duckFront.png,frogFront.png,Lcong,b,-20,landoltCL.png,,,,,0,79,79,16,,,b,0,1.13468665862,,,2020_Mar_04_1608,59.9491724364,duckFrog,001,13,
duck,wnL.wav,20,landoltCTop.png,V1,frogFront.png,duckFront.png,HcongWN,h,-20,landoltCR.png,,,,,1,0,80,33,,,h,0,1.31815754218,,,2020_Mar_04_1608,59.9491724364,duckFrog,001,13,
frog,quackR.wav,20,landoltCTop.png,V1,duckFront.png,frogFront.png,LinCong,h,-20,landoltCR.png,,,,,1,1,81,26,,,h,0,1.21812950063,,,2020_Mar_04_1608,59.9491724364,duckFrog,001,13,
duck,wnL.wav,20,landoltCBottom.png,V1,frogFront.png,duckFront.png,HcongWN,b,-20,landoltCL.png,,,,,1,2,82,73,,,b,0,1.03459813533,,,2020_Mar_04_1608,59.9491724364,duckFrog,001,13,
frog,wnR.wav,20,landoltCBottom.png,V1,duckFront.png,frogFront.png,LinCongWN,b,-20,landoltCR.png,,,,,1,3,83,19,,,b,0,1.65180134858,,,2020_Mar_04_1608,59.9491724364,duckFrog,001,13,
duck,wnR.wav,20,landoltCBottom.png,V1,frogFront.png,duckFront.png,HinCongWN,b,-20,landoltCL.png,,,,,1,4,84,59,,,b,0,1.18475639596,,,2020_Mar_04_1608,59.9491724364,duckFrog,001,13,
duck,ribbitL.wav,-20,landoltCR.png,V1,duckFront.png,frogFront.png,HinCong,h,20,landoltCTop.png,,,,,1,5,85,70,,,h,0,1.13445609482,,,2020_Mar_04_1608,59.9491724364,duckFrog,001,13,
duck,ribbitL.wav,-20,landoltCR.png,V1,duckFront.png,frogFront.png,HinCong,h,20,landoltCTop.png,,,,,1,6,86,54,,,h,0,1.38488285782,,,2020_Mar_04_1608,59.9491724364,duckFrog,001,13,
frog,wnL.wav,20,landoltCBottom.png,V1,duckFront.png,frogFront.png,LcongWN,b,-20,landoltCR.png,,,,,1,7,87,17,,,b,0,1.10110388385,,,2020_Mar_04_1608,59.9491724364,duckFrog,001,13,
duck,quackR.wav,-20,landoltCR.png,V1,duckFront.png,frogFront.png,Hcong,h,20,landoltCTop.png,,,,,1,8,88,36,,,h,0,1.48473385273,,,2020_Mar_04_1608,59.9491724364,duckFrog,001,13,
frog,wnL.wav,20,landoltCTop.png,V1,duckFront.png,frogFront.png,LcongWN,h,-20,landoltCL.png,,,,,1,9,89,25,,,h,0,1.33460345041,,,2020_Mar_04_1608,59.9491724364,duckFrog,001,13,
frog,wnR.wav,-20,landoltCR.png,V1,frogFront.png,duckFront.png,LcongWN,b,20,landoltCBottom.png,,,,,1,10,90,21,,,b,0,1.35134077075,,,2020_Mar_04_1608,59.9491724364,duckFrog,001,13,
duck,wnL.wav,20,landoltCTop.png,V1,frogFront.png,duckFront.png,HcongWN,h,-20,landoltCR.png,,,,,1,11,91,49,,,h,0,1.0177024627,,,2020_Mar_04_1608,59.9491724364,duckFrog,001,13,
duck,wnL.wav,-20,landoltCL.png,V1,duckFront.png,frogFront.png,HinCongWN,h,20,landoltCTop.png,,,,,1,12,92,71,,,h,0,0.884283721796,,,2020_Mar_04_1608,59.9491724364,duckFrog,001,13,
duck,wnR.wav,-20,landoltCL.png,V1,duckFront.png,frogFront.png,HcongWN,h,20,landoltCTop.png,,,,,1,13,93,69,,,h,0,1.00122686342,,,2020_Mar_04_1608,59.9491724364,duckFrog,001,13,
duck,wnR.wav,-20,landoltCL.png,V1,duckFront.png,frogFront.png,HcongWN,b,20,landoltCBottom.png,,,,,1,14,94,45,,,b,0,1.168008812,,,2020_Mar_04_1608,59.9491724364,duckFrog,001,13,
duck,quackL.wav,20,landoltCTop.png,V1,frogFront.png,duckFront.png,Hcong,h,-20,landoltCL.png,,,,,1,15,95,32,,,h,0,1.66819923793,,,2020_Mar_04_1608,59.9491724364,duckFrog,001,13,
duck,wnR.wav,-20,landoltCL.png,V1,duckFront.png,frogFront.png,HcongWN,b,20,landoltCBottom.png,,,,,1,16,96,13,,,b,0,1.13447992099,,,2020_Mar_04_1608,59.9491724364,duckFrog,001,13,
duck,wnR.wav,20,landoltCTop.png,V1,frogFront.png,duckFront.png,HinCongWN,h,-20,landoltCR.png,,,,,1,17,97,35,,,h,0,1.25117930278,,,2020_Mar_04_1608,59.9491724364,duckFrog,001,13,
duck,wnL.wav,-20,landoltCL.png,V1,duckFront.png,frogFront.png,HinCongWN,b,20,landoltCBottom.png,,,,,1,18,98,15,,,b,0,1.21785861565,,,2020_Mar_04_1608,59.9491724364,duckFrog,001,13,
duck,quackL.wav,20,landoltCTop.png,V1,frogFront.png,duckFront.png,Hcong,h,-20,landoltCL.png,,,,,1,19,99,0,,,h,0,1.28456633657,,,2020_Mar_04_1608,59.9491724364,duckFrog,001,13,
duck,wnL.wav,-20,landoltCL.png,V1,duckFront.png,frogFront.png,HinCongWN,h,20,landoltCTop.png,,,,,1,20,100,55,,,h,0,1.26793898307,,,2020_Mar_04_1608,59.9491724364,duckFrog,001,13,
duck,wnR.wav,-20,landoltCL.png,V1,duckFront.png,frogFront.png,HcongWN,h,20,landoltCTop.png,,,,,1,21,101,53,,,h,0,0.90114787058,,,2020_Mar_04_1608,59.9491724364,duckFrog,001,13,
duck,ribbitR.wav,20,landoltCTop.png,V1,frogFront.png,duckFront.png,HinCong,h,-20,landoltCL.png,,,,,1,22,102,34,,,h,0,1.10108005768,,,2020_Mar_04_1608,59.9491724364,duckFrog,001,13,
duck,ribbitR.wav,20,landoltCTop.png,V1,frogFront.png,duckFront.png,HinCong,h,-20,landoltCL.png,,,,,1,23,103,66,,,h,0,1.21813756484,,,2020_Mar_04_1608,59.9491724364,duckFrog,001,13,
frog,ribbitL.wav,20,landoltCTop.png,V1,duckFront.png,frogFront.png,Lcong,h,-20,landoltCR.png,,,,,1,24,104,24,,,h,0,1.22769808237,,,2020_Mar_04_1608,59.9491724364,duckFrog,001,13,
frog,ribbitL.wav,20,landoltCBottom.png,V1,duckFront.png,frogFront.png,Lcong,b,-20,landoltCL.png,,,,,1,25,105,16,,,b,0,1.30148730159,,,2020_Mar_04_1608,59.9491724364,duckFrog,001,13,
duck,quackL.wav,20,landoltCTop.png,V1,frogFront.png,duckFront.png,Hcong,h,-20,landoltCL.png,,,,,1,26,106,64,,,h,0,1.13470278712,,,2020_Mar_04_1608,59.9491724364,duckFrog,001,13,
frog,wnL.wav,-20,landoltCR.png,V1,frogFront.png,duckFront.png,LinCongWN,b,20,landoltCBottom.png,,,,,1,27,107,23,,,b,0,1.36797545542,,,2020_Mar_04_1608,59.9491724364,duckFrog,001,13,
frog,ribbitR.wav,-20,landoltCL.png,V1,frogFront.png,duckFront.png,Lcong,h,20,landoltCTop.png,,,,,1,28,108,28,,,h,0,1.66841550608,,,2020_Mar_04_1608,59.9491724364,duckFrog,001,13,
frog,wnL.wav,-20,landoltCR.png,V1,frogFront.png,duckFront.png,LinCongWN,h,20,landoltCTop.png,,,,,1,29,109,31,,,h,0,1.15144853826,,,2020_Mar_04_1608,59.9491724364,duckFrog,001,13,
duck,wnL.wav,-20,landoltCL.png,V1,duckFront.png,frogFront.png,HinCongWN,b,20,landoltCBottom.png,,,,,1,30,110,79,,,b,0,1.13488093342,,,2020_Mar_04_1608,59.9491724364,duckFrog,001,13,
duck,ribbitL.wav,-20,landoltCR.png,V1,duckFront.png,frogFront.png,HinCong,b,20,landoltCBottom.png,,,,,1,31,111,62,,,b,0,1.40158682156,,,2020_Mar_04_1608,59.9491724364,duckFrog,001,13,
duck,wnR.wav,20,landoltCBottom.png,V1,frogFront.png,duckFront.png,HinCongWN,b,-20,landoltCL.png,,,,,1,32,112,43,,,b,0,1.36797069019,,,2020_Mar_04_1608,59.9491724364,duckFrog,001,13,
duck,ribbitL.wav,-20,landoltCR.png,V1,duckFront.png,frogFront.png,HinCong,b,20,landoltCBottom.png,,,,,1,33,113,46,,,b,0,1.18453023082,,,2020_Mar_04_1608,59.9491724364,duckFrog,001,13,
duck,quackL.wav,20,landoltCBottom.png,V1,frogFront.png,duckFront.png,Hcong,b,-20,landoltCR.png,,,,,1,34,114,8,,,b,0,0.8508974211,,,2020_Mar_04_1608,59.9491724364,duckFrog,001,13,
duck,wnR.wav,20,landoltCBottom.png,V1,frogFront.png,duckFront.png,HinCongWN,b,-20,landoltCL.png,,,,,1,35,115,11,,,b,0,1.31817770275,,,2020_Mar_04_1608,59.9491724364,duckFrog,001,13,
frog,quackL.wav,-20,landoltCL.png,V1,frogFront.png,duckFront.png,LinCong,b,20,landoltCBottom.png,,,,,1,36,116,22,,,b,0,1.56814773681,,,2020_Mar_04_1608,59.9491724364,duckFrog,001,13,
duck,wnL.wav,20,landoltCBottom.png,V1,frogFront.png,duckFront.png,HcongWN,b,-20,landoltCL.png,,,,,1,37,117,57,,,b,0,1.61818045191,,,2020_Mar_04_1608,59.9491724364,duckFrog,001,13,
frog,wnR.wav,-20,landoltCR.png,V1,frogFront.png,duckFront.png,LcongWN,h,20,landoltCTop.png,,,,,1,38,118,29,,,h,0,1.43475538792,,,2020_Mar_04_1608,59.9491724364,duckFrog,001,13,
duck,quackR.wav,-20,landoltCR.png,V1,duckFront.png,frogFront.png,Hcong,b,20,landoltCBottom.png,,,,,1,39,119,60,,,b,0,1.30153092174,,,2020_Mar_04_1608,59.9491724364,duckFrog,001,13,
duck,quackL.wav,20,landoltCBottom.png,V1,frogFront.png,duckFront.png,Hcong,b,-20,landoltCR.png,,,,,1,40,120,56,,,b,0,1.31787785984,,,2020_Mar_04_1608,59.9491724364,duckFrog,001,13,
frog,quackR.wav,20,landoltCBottom.png,V1,duckFront.png,frogFront.png,LinCong,b,-20,landoltCL.png,,,,,1,41,121,18,,,b,0,1.4845729346,,,2020_Mar_04_1608,59.9491724364,duckFrog,001,13,
duck,wnL.wav,20,landoltCBottom.png,V1,frogFront.png,duckFront.png,HcongWN,b,-20,landoltCL.png,,,,,1,42,122,9,,,b,0,1.2015974517,,,2020_Mar_04_1608,59.9491724364,duckFrog,001,13,
duck,wnL.wav,20,landoltCTop.png,V1,frogFront.png,duckFront.png,HcongWN,h,-20,landoltCR.png,,,,,1,43,123,1,,,h,0,1.36822434701,,,2020_Mar_04_1608,59.9491724364,duckFrog,001,13,
frog,ribbitR.wav,-20,landoltCL.png,V1,frogFront.png,duckFront.png,Lcong,b,20,landoltCBottom.png,,,,,1,44,124,20,,,b,0,1.50137000362,,,2020_Mar_04_1608,59.9491724364,duckFrog,001,13,
duck,quackR.wav,-20,landoltCR.png,V1,duckFront.png,frogFront.png,Hcong,h,20,landoltCTop.png,,,,,1,45,125,4,,,h,0,1.68514109662,,,2020_Mar_04_1608,59.9491724364,duckFrog,001,13,
duck,wnR.wav,20,landoltCBottom.png,V1,frogFront.png,duckFront.png,HinCongWN,b,-20,landoltCL.png,,,,,1,46,126,75,,,b,0,1.18453243014,,,2020_Mar_04_1608,59.9491724364,duckFrog,001,13,
duck,wnL.wav,20,landoltCTop.png,V1,frogFront.png,duckFront.png,HcongWN,h,-20,landoltCR.png,,,,,1,47,127,65,,,h,0,1.90196492424,,,2020_Mar_04_1608,59.9491724364,duckFrog,001,13,
duck,ribbitR.wav,20,landoltCBottom.png,V1,frogFront.png,duckFront.png,HinCong,b,-20,landoltCR.png,,,,,1,48,128,10,,,b,0,1.25152203275,,,2020_Mar_04_1608,59.9491724364,duckFrog,001,13,
duck,wnL.wav,-20,landoltCL.png,V1,duckFront.png,frogFront.png,HinCongWN,b,20,landoltCBottom.png,,,,,1,49,129,47,,,b,0,1.25125957857,,,2020_Mar_04_1608,59.9491724364,duckFrog,001,13,
duck,wnL.wav,-20,landoltCL.png,V1,duckFront.png,frogFront.png,HinCongWN,b,20,landoltCBottom.png,,,,,1,50,130,63,,,b,0,1.85190545052,,,2020_Mar_04_1608,59.9491724364,duckFrog,001,13,
duck,ribbitL.wav,-20,landoltCR.png,V1,duckFront.png,frogFront.png,HinCong,b,20,landoltCBottom.png,,,,,1,51,131,78,,,b,0,1.3348516089,,,2020_Mar_04_1608,59.9491724364,duckFrog,001,13,
duck,wnL.wav,20,landoltCBottom.png,V1,frogFront.png,duckFront.png,HcongWN,b,-20,landoltCL.png,,,,,1,52,132,41,,,b,0,1.31795117105,,,2020_Mar_04_1608,59.9491724364,duckFrog,001,13,
duck,quackR.wav,-20,landoltCR.png,V1,duckFront.png,frogFront.png,Hcong,b,20,landoltCBottom.png,,,,,1,53,133,76,,,b,0,1.41801733445,,,2020_Mar_04_1608,59.9491724364,duckFrog,001,13,
duck,wnL.wav,-20,landoltCL.png,V1,duckFront.png,frogFront.png,HinCongWN,h,20,landoltCTop.png,,,,,1,54,134,39,,,h,0,1.63469930485,,,2020_Mar_04_1608,59.9491724364,duckFrog,001,13,
duck,ribbitL.wav,-20,landoltCR.png,V1,duckFront.png,frogFront.png,HinCong,b,20,landoltCBottom.png,,,,,1,55,135,14,,,b,0,1.20140061105,,,2020_Mar_04_1608,59.9491724364,duckFrog,001,13,
duck,ribbitR.wav,20,landoltCBottom.png,V1,frogFront.png,duckFront.png,HinCong,b,-20,landoltCR.png,,,,,1,56,136,42,,,b,0,1.00097137381,,,2020_Mar_04_1608,59.9491724364,duckFrog,001,13,
frog,wnR.wav,20,landoltCTop.png,V1,duckFront.png,frogFront.png,LinCongWN,h,-20,landoltCL.png,,,,,1,57,137,27,,,h,0,1.31822278915,,,2020_Mar_04_1608,59.9491724364,duckFrog,001,13,
duck,wnR.wav,20,landoltCTop.png,V1,frogFront.png,duckFront.png,HinCongWN,h,-20,landoltCR.png,,,,,1,58,138,67,,,h,0,1.15136826248,,,2020_Mar_04_1608,59.9491724364,duckFrog,001,13,
duck,quackR.wav,-20,landoltCR.png,V1,duckFront.png,frogFront.png,Hcong,b,20,landoltCBottom.png,,,,,1,59,139,12,,,b,0,0.967653619096,,,2020_Mar_04_1608,59.9491724364,duckFrog,001,13,
duck,quackR.wav,-20,landoltCR.png,V1,duckFront.png,frogFront.png,Hcong,h,20,landoltCTop.png,,,,,1,60,140,68,,,h,0,1.05130136598,,,2020_Mar_04_1608,59.9491724364,duckFrog,001,13,
duck,wnR.wav,20,landoltCTop.png,V1,frogFront.png,duckFront.png,HinCongWN,h,-20,landoltCR.png,,,,,1,61,141,3,,,h,0,1.31794860517,,,2020_Mar_04_1608,59.9491724364,duckFrog,001,13,
duck,ribbitL.wav,-20,landoltCR.png,V1,duckFront.png,frogFront.png,HinCong,h,20,landoltCTop.png,,,,,1,62,142,6,,,h,0,1.65146375034,,,2020_Mar_04_1608,59.9491724364,duckFrog,001,13,
duck,wnL.wav,-20,landoltCL.png,V1,duckFront.png,frogFront.png,HinCongWN,h,20,landoltCTop.png,,,,,1,63,143,7,,,h,0,0.767736827343,,,2020_Mar_04_1608,59.9491724364,duckFrog,001,13,
duck,quackR.wav,-20,landoltCR.png,V1,duckFront.png,frogFront.png,Hcong,b,20,landoltCBottom.png,,,,,1,64,144,44,,,b,0,0.851114788908,,,2020_Mar_04_1608,59.9491724364,duckFrog,001,13,
duck,wnR.wav,-20,landoltCL.png,V1,duckFront.png,frogFront.png,HcongWN,b,20,landoltCBottom.png,,,,,1,65,145,77,,,b,0,0.901157401066,,,2020_Mar_04_1608,59.9491724364,duckFrog,001,13,
duck,ribbitL.wav,-20,landoltCR.png,V1,duckFront.png,frogFront.png,HinCong,h,20,landoltCTop.png,,,,,1,66,146,38,,,h,0,1.3848604979,,,2020_Mar_04_1608,59.9491724364,duckFrog,001,13,
duck,wnR.wav,-20,landoltCL.png,V1,duckFront.png,frogFront.png,HcongWN,b,20,landoltCBottom.png,,,,,1,67,147,61,,,b,0,1.601703753,,,2020_Mar_04_1608,59.9491724364,duckFrog,001,13,
duck,quackR.wav,-20,landoltCR.png,V1,duckFront.png,frogFront.png,Hcong,h,20,landoltCTop.png,,,,,1,68,148,52,,,h,0,1.20145156235,,,2020_Mar_04_1608,59.9491724364,duckFrog,001,13,
duck,ribbitR.wav,20,landoltCBottom.png,V1,frogFront.png,duckFront.png,HinCong,b,-20,landoltCR.png,,,,,1,69,149,58,,,b,0,1.01768890012,,,2020_Mar_04_1608,59.9491724364,duckFrog,001,13,
duck,ribbitR.wav,20,landoltCTop.png,V1,frogFront.png,duckFront.png,HinCong,h,-20,landoltCL.png,,,,,1,70,150,50,,,h,0,1.01786301431,,,2020_Mar_04_1608,59.9491724364,duckFrog,001,13,
frog,quackL.wav,-20,landoltCL.png,V1,frogFront.png,duckFront.png,LinCong,h,20,landoltCTop.png,,,,,1,71,151,30,,,h,0,1.75160835675,,,2020_Mar_04_1608,59.9491724364,duckFrog,001,13,
duck,wnR.wav,-20,landoltCL.png,V1,duckFront.png,frogFront.png,HcongWN,h,20,landoltCTop.png,,,,,1,72,152,37,,,h,0,1.55166773885,,,2020_Mar_04_1608,59.9491724364,duckFrog,001,13,
duck,quackL.wav,20,landoltCBottom.png,V1,frogFront.png,duckFront.png,Hcong,b,-20,landoltCR.png,,,,,1,73,153,40,,,b,0,0.95097568084,,,2020_Mar_04_1608,59.9491724364,duckFrog,001,13,
duck,quackL.wav,20,landoltCTop.png,V1,frogFront.png,duckFront.png,Hcong,h,-20,landoltCL.png,,,,,1,74,154,48,,,h,0,1.41826109428,,,2020_Mar_04_1608,59.9491724364,duckFrog,001,13,
duck,quackL.wav,20,landoltCBottom.png,V1,frogFront.png,duckFront.png,Hcong,b,-20,landoltCR.png,,,,,1,75,155,72,,,b,0,1.08464881172,,,2020_Mar_04_1608,59.9491724364,duckFrog,001,13,
duck,ribbitR.wav,20,landoltCBottom.png,V1,frogFront.png,duckFront.png,HinCong,b,-20,landoltCR.png,,,,,1,76,156,74,,,b,0,1.01790516826,,,2020_Mar_04_1608,59.9491724364,duckFrog,001,13,
duck,ribbitR.wav,20,landoltCTop.png,V1,frogFront.png,duckFront.png,HinCong,h,-20,landoltCL.png,,,,,1,77,157,2,,,h,0,1.36821371689,,,2020_Mar_04_1608,59.9491724364,duckFrog,001,13,
duck,wnR.wav,20,landoltCTop.png,V1,frogFront.png,duckFront.png,HinCongWN,h,-20,landoltCR.png,,,,,1,78,158,51,,,h,0,1.38490338495,,,2020_Mar_04_1608,59.9491724364,duckFrog,001,13,
duck,wnR.wav,-20,landoltCL.png,V1,duckFront.png,frogFront.png,HcongWN,h,20,landoltCTop.png,,,,,1,79,159,5,,,h,0,1.36795969348,,,2020_Mar_04_1608,59.9491724364,duckFrog,001,13,
frog,ribbitR.wav,-20,landoltCL.png,V1,frogFront.png,duckFront.png,Lcong,h,20,landoltCTop.png,,,,,2,0,160,28,,,h,0,1.53501179395,,,2020_Mar_04_1608,59.9491724364,duckFrog,001,13,
duck,quackR.wav,-20,landoltCR.png,V1,duckFront.png,frogFront.png,Hcong,h,20,landoltCTop.png,,,,,2,1,161,4,,,h,0,1.23474622401,,,2020_Mar_04_1608,59.9491724364,duckFrog,001,13,
frog,quackR.wav,20,landoltCTop.png,V1,duckFront.png,frogFront.png,LinCong,h,-20,landoltCR.png,,,,,2,2,162,26,,,h,0,1.60149848153,,,2020_Mar_04_1608,59.9491724364,duckFrog,001,13,
duck,wnL.wav,20,landoltCTop.png,V1,frogFront.png,duckFront.png,HcongWN,h,-20,landoltCR.png,,,,,2,3,163,65,,,h,0,1.43491154083,,,2020_Mar_04_1608,59.9491724364,duckFrog,001,13,
duck,ribbitR.wav,20,landoltCTop.png,V1,frogFront.png,duckFront.png,HinCong,h,-20,landoltCL.png,,,,,2,4,164,34,,,h,0,1.41825486283,,,2020_Mar_04_1608,59.9491724364,duckFrog,001,13,
frog,ribbitL.wav,20,landoltCBottom.png,V1,duckFront.png,frogFront.png,Lcong,b,-20,landoltCL.png,,,,,2,5,165,16,,,b,0,1.13467822786,,,2020_Mar_04_1608,59.9491724364,duckFrog,001,13,
frog,ribbitL.wav,20,landoltCTop.png,V1,duckFront.png,frogFront.png,Lcong,h,-20,landoltCR.png,,,,,2,6,166,24,,,h,0,1.00125545482,,,2020_Mar_04_1608,59.9491724364,duckFrog,001,13,
duck,wnR.wav,20,landoltCBottom.png,V1,frogFront.png,duckFront.png,HinCongWN,b,-20,landoltCL.png,,,,,2,7,167,75,,,b,0,1.40158865435,,,2020_Mar_04_1608,59.9491724364,duckFrog,001,13,
duck,wnR.wav,20,landoltCBottom.png,V1,frogFront.png,duckFront.png,HinCongWN,b,-20,landoltCL.png,,,,,2,8,168,59,,,b,0,0.901147504046,,,2020_Mar_04_1608,59.9491724364,duckFrog,001,13,
duck,quackL.wav,20,landoltCTop.png,V1,frogFront.png,duckFront.png,Hcong,h,-20,landoltCL.png,,,,,2,9,169,48,,,h,0,1.15135689921,,,2020_Mar_04_1608,59.9491724364,duckFrog,001,13,
duck,ribbitL.wav,-20,landoltCR.png,V1,duckFront.png,frogFront.png,HinCong,h,20,landoltCTop.png,,,,,2,10,170,38,,,h,0,1.60155236529,,,2020_Mar_04_1608,59.9491724364,duckFrog,001,13,
duck,wnR.wav,-20,landoltCL.png,V1,duckFront.png,frogFront.png,HcongWN,h,20,landoltCTop.png,,,,,2,11,171,37,,,h,0,1.25146155103,,,2020_Mar_04_1608,59.9491724364,duckFrog,001,13,
duck,quackL.wav,20,landoltCBottom.png,V1,frogFront.png,duckFront.png,Hcong,b,-20,landoltCR.png,,,,,2,12,172,8,,,b,0,0.867723448027,,,2020_Mar_04_1608,59.9491724364,duckFrog,001,13,
duck,wnL.wav,-20,landoltCL.png,V1,duckFront.png,frogFront.png,HinCongWN,b,20,landoltCBottom.png,,,,,2,13,173,63,,,b,0,1.31795190417,,,2020_Mar_04_1608,59.9491724364,duckFrog,001,13,
duck,quackR.wav,-20,landoltCR.png,V1,duckFront.png,frogFront.png,Hcong,h,20,landoltCTop.png,,,,,2,14,174,68,,,h,0,1.11797646343,,,2020_Mar_04_1608,59.9491724364,duckFrog,001,13,
duck,wnL.wav,20,landoltCTop.png,V1,frogFront.png,duckFront.png,HcongWN,h,-20,landoltCR.png,,,,,2,15,175,33,,,h,0,0.817485828011,,,2020_Mar_04_1608,59.9491724364,duckFrog,001,13,
duck,quackR.wav,-20,landoltCR.png,V1,duckFront.png,frogFront.png,Hcong,h,20,landoltCTop.png,,,,,2,16,176,52,,,h,0,1.43532501618,,,2020_Mar_04_1608,59.9491724364,duckFrog,001,13,
duck,ribbitL.wav,-20,landoltCR.png,V1,duckFront.png,frogFront.png,HinCong,b,20,landoltCBottom.png,,,,,2,17,177,62,,,b,0,1.08460519154,,,2020_Mar_04_1608,59.9491724364,duckFrog,001,13,
duck,wnL.wav,-20,landoltCL.png,V1,duckFront.png,frogFront.png,HinCongWN,h,20,landoltCTop.png,,,,,2,18,178,55,,,h,0,0.951190116175,,,2020_Mar_04_1608,59.9491724364,duckFrog,001,13,
frog,quackL.wav,-20,landoltCL.png,V1,frogFront.png,duckFront.png,LinCong,b,20,landoltCBottom.png,,,,,2,19,179,22,,,b,0,1.53503452044,,,2020_Mar_04_1608,59.9491724364,duckFrog,001,13,
duck,wnR.wav,20,landoltCTop.png,V1,frogFront.png,duckFront.png,HinCongWN,h,-20,landoltCR.png,,,,,2,20,180,3,,,h,0,0.934311305144,,,2020_Mar_04_1608,59.9491724364,duckFrog,001,13,
frog,wnL.wav,20,landoltCTop.png,V1,duckFront.png,frogFront.png,LcongWN,h,-20,landoltCL.png,,,,,2,21,181,25,,,h,0,1.48515355951,,,2020_Mar_04_1608,59.9491724364,duckFrog,001,13,
duck,wnL.wav,20,landoltCBottom.png,V1,frogFront.png,duckFront.png,HcongWN,b,-20,landoltCL.png,,,,,2,22,182,9,,,b,0,0.967923037882,,,2020_Mar_04_1608,59.9491724364,duckFrog,001,13,
frog,wnR.wav,20,landoltCTop.png,V1,duckFront.png,frogFront.png,LinCongWN,h,-20,landoltCL.png,,,,,2,23,183,27,,,h,0,1.11797279789,,,2020_Mar_04_1608,59.9491724364,duckFrog,001,13,
duck,quackR.wav,-20,landoltCR.png,V1,duckFront.png,frogFront.png,Hcong,h,20,landoltCTop.png,,,,,2,24,184,36,,,h,0,1.28458136538,,,2020_Mar_04_1608,59.9491724364,duckFrog,001,13,
duck,ribbitR.wav,20,landoltCTop.png,V1,frogFront.png,duckFront.png,HinCong,h,-20,landoltCL.png,,,,,2,25,185,66,,,h,0,0.900903011061,,,2020_Mar_04_1608,59.9491724364,duckFrog,001,13,
duck,wnR.wav,20,landoltCTop.png,V1,frogFront.png,duckFront.png,HinCongWN,h,-20,landoltCR.png,,,,,2,26,186,67,,,h,0,0.867878867837,,,2020_Mar_04_1608,59.9491724364,duckFrog,001,13,
duck,quackR.wav,-20,landoltCR.png,V1,duckFront.png,frogFront.png,Hcong,b,20,landoltCBottom.png,,,,,2,27,187,12,,,b,0,1.50140959167,,,2020_Mar_04_1608,59.9491724364,duckFrog,001,13,
frog,ribbitR.wav,-20,landoltCL.png,V1,frogFront.png,duckFront.png,Lcong,b,20,landoltCBottom.png,,,,,2,28,188,20,,,b,0,1.36835520755,,,2020_Mar_04_1608,59.9491724364,duckFrog,001,13,
duck,ribbitL.wav,-20,landoltCR.png,V1,duckFront.png,frogFront.png,HinCong,h,20,landoltCTop.png,,,,,2,29,189,70,,,h,0,1.16806966034,,,2020_Mar_04_1608,59.9491724364,duckFrog,001,13,
duck,quackR.wav,-20,landoltCR.png,V1,duckFront.png,frogFront.png,Hcong,b,20,landoltCBottom.png,,,,,2,30,190,60,,,b,0,1.98536634538,,,2020_Mar_04_1608,59.9491724364,duckFrog,001,13,
duck,ribbitR.wav,20,landoltCBottom.png,V1,frogFront.png,duckFront.png,HinCong,b,-20,landoltCR.png,,,,,2,31,191,42,,,b,0,1.01767497102,,,2020_Mar_04_1608,59.9491724364,duckFrog,001,13,
duck,ribbitR.wav,20,landoltCBottom.png,V1,frogFront.png,duckFront.png,HinCong,b,-20,landoltCR.png,,,,,2,32,192,58,,,b,0,0.951226405217,,,2020_Mar_04_1608,59.9491724364,duckFrog,001,13,
frog,quackR.wav,20,landoltCBottom.png,V1,duckFront.png,frogFront.png,LinCong,b,-20,landoltCL.png,,,,,2,33,193,18,,,b,0,1.13468849141,,,2020_Mar_04_1608,59.9491724364,duckFrog,001,13,
duck,quackR.wav,-20,landoltCR.png,V1,duckFront.png,frogFront.png,Hcong,b,20,landoltCBottom.png,,,,,2,34,194,76,,,b,0,1.11778768702,,,2020_Mar_04_1608,59.9491724364,duckFrog,001,13,
duck,quackL.wav,20,landoltCBottom.png,V1,frogFront.png,duckFront.png,Hcong,b,-20,landoltCR.png,,,,,2,35,195,56,,,b,0,1.30122118181,,,2020_Mar_04_1608,59.9491724364,duckFrog,001,13,
duck,ribbitL.wav,-20,landoltCR.png,V1,duckFront.png,frogFront.png,HinCong,b,20,landoltCBottom.png,,,,,2,36,196,78,,,b,0,1.15105962221,,,2020_Mar_04_1608,59.9491724364,duckFrog,001,13,
duck,wnL.wav,-20,landoltCL.png,V1,duckFront.png,frogFront.png,HinCongWN,h,20,landoltCTop.png,,,,,2,37,197,39,,,h,0,1.21808074863,,,2020_Mar_04_1608,59.9491724364,duckFrog,001,13,
duck,wnL.wav,20,landoltCTop.png,V1,frogFront.png,duckFront.png,HcongWN,h,-20,landoltCR.png,,,,,2,38,198,1,,,h,0,1.25120716105,,,2020_Mar_04_1608,59.9491724364,duckFrog,001,13,
duck,wnL.wav,20,landoltCTop.png,V1,frogFront.png,duckFront.png,HcongWN,h,-20,landoltCR.png,,,,,2,39,199,49,,,h,0,0.917826175399,,,2020_Mar_04_1608,59.9491724364,duckFrog,001,13,
frog,wnL.wav,20,landoltCBottom.png,V1,duckFront.png,frogFront.png,LcongWN,b,-20,landoltCR.png,,,,,2,40,200,17,,,b,0,1.21809394468,,,2020_Mar_04_1608,59.9491724364,duckFrog,001,13,
duck,wnR.wav,20,landoltCBottom.png,V1,frogFront.png,duckFront.png,HinCongWN,b,-20,landoltCL.png,,,,,2,41,201,11,,,b,0,0.984572751302,,,2020_Mar_04_1608,59.9491724364,duckFrog,001,13,
frog,wnR.wav,-20,landoltCR.png,V1,frogFront.png,duckFront.png,LcongWN,b,20,landoltCBottom.png,,,,,2,42,202,21,,,b,0,1.41807928242,,,2020_Mar_04_1608,59.9491724364,duckFrog,001,13,
duck,quackL.wav,20,landoltCTop.png,V1,frogFront.png,duckFront.png,Hcong,h,-20,landoltCL.png,,,,,2,43,203,0,,,h,0,1.1344330018,,,2020_Mar_04_1608,59.9491724364,duckFrog,001,13,
frog,quackL.wav,-20,landoltCL.png,V1,frogFront.png,duckFront.png,LinCong,h,20,landoltCTop.png,,,,,2,44,204,30,,,h,0,1.43472276445,,,2020_Mar_04_1608,59.9491724364,duckFrog,001,13,
duck,quackL.wav,20,landoltCBottom.png,V1,frogFront.png,duckFront.png,Hcong,b,-20,landoltCR.png,,,,,2,45,205,72,,,b,0,1.01771712498,,,2020_Mar_04_1608,59.9491724364,duckFrog,001,13,
frog,wnR.wav,-20,landoltCR.png,V1,frogFront.png,duckFront.png,LcongWN,h,20,landoltCTop.png,,,,,2,46,206,29,,,h,0,1.08440871743,,,2020_Mar_04_1608,59.9491724364,duckFrog,001,13,
duck,ribbitR.wav,20,landoltCBottom.png,V1,frogFront.png,duckFront.png,HinCong,b,-20,landoltCR.png,,,,,2,47,207,74,,,b,0,1.21784945173,,,2020_Mar_04_1608,59.9491724364,duckFrog,001,13,
duck,wnR.wav,20,landoltCBottom.png,V1,frogFront.png,duckFront.png,HinCongWN,b,-20,landoltCL.png,,,,,2,48,208,43,,,b,0,1.0679796708,,,2020_Mar_04_1608,59.9491724364,duckFrog,001,13,
duck,wnR.wav,-20,landoltCL.png,V1,duckFront.png,frogFront.png,HcongWN,h,20,landoltCTop.png,,,,,2,49,209,69,,,h,0,1.33461994541,,,2020_Mar_04_1608,59.9491724364,duckFrog,001,13,
duck,ribbitR.wav,20,landoltCTop.png,V1,frogFront.png,duckFront.png,HinCong,h,-20,landoltCL.png,,,,,2,50,210,2,,,h,0,1.05108766371,,,2020_Mar_04_1608,59.9491724364,duckFrog,001,13,
duck,quackR.wav,-20,landoltCR.png,V1,duckFront.png,frogFront.png,Hcong,b,20,landoltCBottom.png,,,,,2,51,211,44,,,b,0,1.0176899998,,,2020_Mar_04_1608,59.9491724364,duckFrog,001,13,
duck,wnR.wav,20,landoltCTop.png,V1,frogFront.png,duckFront.png,HinCongWN,h,-20,landoltCR.png,,,,,2,52,212,51,,,h,0,1.03441412412,,,2020_Mar_04_1608,59.9491724364,duckFrog,001,13,
duck,quackL.wav,20,landoltCTop.png,V1,frogFront.png,duckFront.png,Hcong,h,-20,landoltCL.png,,,,,2,53,213,32,,,h,0,1.1347104848,,,2020_Mar_04_1608,59.9491724364,duckFrog,001,13,
duck,ribbitL.wav,-20,landoltCR.png,V1,duckFront.png,frogFront.png,HinCong,b,20,landoltCBottom.png,,,,,2,54,214,46,,,b,0,0.834227180516,,,2020_Mar_04_1608,59.9491724364,duckFrog,001,13,
duck,wnL.wav,20,landoltCBottom.png,V1,frogFront.png,duckFront.png,HcongWN,b,-20,landoltCL.png,,,,,2,55,215,57,,,b,0,0.884293618816,,,2020_Mar_04_1608,59.9491724364,duckFrog,001,13,
duck,ribbitL.wav,-20,landoltCR.png,V1,duckFront.png,frogFront.png,HinCong,b,20,landoltCBottom.png,,,,,2,56,216,14,,,b,0,1.18450750434,,,2020_Mar_04_1608,59.9491724364,duckFrog,001,13,
frog,wnR.wav,20,landoltCBottom.png,V1,duckFront.png,frogFront.png,LinCongWN,b,-20,landoltCR.png,,,,,2,57,217,19,,,b,0,1.00099190092,,,2020_Mar_04_1608,59.9491724364,duckFrog,001,13,
frog,wnL.wav,-20,landoltCR.png,V1,frogFront.png,duckFront.png,LinCongWN,h,20,landoltCTop.png,,,,,2,58,218,31,,,h,0,1.43469380648,,,2020_Mar_04_1608,59.9491724364,duckFrog,001,13,
frog,wnL.wav,-20,landoltCR.png,V1,frogFront.png,duckFront.png,LinCongWN,b,20,landoltCBottom.png,,,,,2,59,219,23,,,b,0,1.25157005165,,,2020_Mar_04_1608,59.9491724364,duckFrog,001,13,
duck,wnR.wav,-20,landoltCL.png,V1,duckFront.png,frogFront.png,HcongWN,b,20,landoltCBottom.png,,,,,2,60,220,13,,,b,0,1.35111460561,,,2020_Mar_04_1608,59.9491724364,duckFrog,001,13,
duck,wnL.wav,20,landoltCBottom.png,V1,frogFront.png,duckFront.png,HcongWN,b,-20,landoltCL.png,,,,,2,61,221,41,,,b,0,0.967674146232,,,2020_Mar_04_1608,59.9491724364,duckFrog,001,13,
duck,ribbitR.wav,20,landoltCBottom.png,V1,frogFront.png,duckFront.png,HinCong,b,-20,landoltCR.png,,,,,2,62,222,10,,,b,0,1.05090951745,,,2020_Mar_04_1608,59.9491724364,duckFrog,001,13,
duck,wnR.wav,20,landoltCTop.png,V1,frogFront.png,duckFront.png,HinCongWN,h,-20,landoltCR.png,,,,,2,63,223,35,,,h,0,1.53497843732,,,2020_Mar_04_1608,59.9491724364,duckFrog,001,13,
duck,wnR.wav,-20,landoltCL.png,V1,duckFront.png,frogFront.png,HcongWN,h,20,landoltCTop.png,,,,,2,64,224,5,,,h,0,1.33464926991,,,2020_Mar_04_1608,59.9491724364,duckFrog,001,13,
duck,wnR.wav,-20,landoltCL.png,V1,duckFront.png,frogFront.png,HcongWN,b,20,landoltCBottom.png,,,,,2,65,225,61,,,b,0,1.00129174386,,,2020_Mar_04_1608,59.9491724364,duckFrog,001,13,
duck,wnL.wav,-20,landoltCL.png,V1,duckFront.png,frogFront.png,HinCongWN,b,20,landoltCBottom.png,,,,,2,66,226,79,,,b,0,1.36780024154,,,2020_Mar_04_1608,59.9491724364,duckFrog,001,13,
duck,wnL.wav,-20,landoltCL.png,V1,duckFront.png,frogFront.png,HinCongWN,b,20,landoltCBottom.png,,,,,2,67,227,15,,,b,0,0.917836438981,,,2020_Mar_04_1608,59.9491724364,duckFrog,001,13,
duck,ribbitL.wav,-20,landoltCR.png,V1,duckFront.png,frogFront.png,HinCong,h,20,landoltCTop.png,,,,,2,68,228,54,,,h,0,1.21772518917,,,2020_Mar_04_1608,59.9491724364,duckFrog,001,13,
duck,wnL.wav,-20,landoltCL.png,V1,duckFront.png,frogFront.png,HinCongWN,b,20,landoltCBottom.png,,,,,2,69,229,47,,,b,0,1.06794191551,,,2020_Mar_04_1608,59.9491724364,duckFrog,001,13,
duck,ribbitL.wav,-20,landoltCR.png,V1,duckFront.png,frogFront.png,HinCong,h,20,landoltCTop.png,,,,,2,70,230,6,,,h,0,0.967903243843,,,2020_Mar_04_1608,59.9491724364,duckFrog,001,13,
duck,wnL.wav,-20,landoltCL.png,V1,duckFront.png,frogFront.png,HinCongWN,h,20,landoltCTop.png,,,,,2,71,231,7,,,h,0,1.10129595926,,,2020_Mar_04_1608,59.9491724364,duckFrog,001,13,
duck,ribbitR.wav,20,landoltCTop.png,V1,frogFront.png,duckFront.png,HinCong,h,-20,landoltCL.png,,,,,2,72,232,50,,,h,0,1.15112853472,,,2020_Mar_04_1608,59.9491724364,duckFrog,001,13,
duck,wnL.wav,-20,landoltCL.png,V1,duckFront.png,frogFront.png,HinCongWN,h,20,landoltCTop.png,,,,,2,73,233,71,,,h,0,0.784162941534,,,2020_Mar_04_1608,59.9491724364,duckFrog,001,13,
duck,quackL.wav,20,landoltCTop.png,V1,frogFront.png,duckFront.png,Hcong,h,-20,landoltCL.png,,,,,2,74,234,64,,,h,0,0.834251006658,,,2020_Mar_04_1608,59.9491724364,duckFrog,001,13,
duck,wnR.wav,-20,landoltCL.png,V1,duckFront.png,frogFront.png,HcongWN,h,20,landoltCTop.png,,,,,2,75,235,53,,,h,0,0.967829566041,,,2020_Mar_04_1608,59.9491724364,duckFrog,001,13,
duck,wnL.wav,20,landoltCBottom.png,V1,frogFront.png,duckFront.png,HcongWN,b,-20,landoltCL.png,,,,,2,76,236,73,,,b,0,0.767511761893,,,2020_Mar_04_1608,59.9491724364,duckFrog,001,13,
duck,wnR.wav,-20,landoltCL.png,V1,duckFront.png,frogFront.png,HcongWN,b,20,landoltCBottom.png,,,,,2,77,237,45,,,b,0,0.784140215052,,,2020_Mar_04_1608,59.9491724364,duckFrog,001,13,
duck,quackL.wav,20,landoltCBottom.png,V1,frogFront.png,duckFront.png,Hcong,b,-20,landoltCR.png,,,,,2,78,238,40,,,b,0,0.634057465009,,,2020_Mar_04_1608,59.9491724364,duckFrog,001,13,
duck,wnR.wav,-20,landoltCL.png,V1,duckFront.png,frogFront.png,HcongWN,b,20,landoltCBottom.png,,,,,2,79,239,77,,,b,0,0.700784613437,,,2020_Mar_04_1608,59.9491724364,duckFrog,001,13,
duck,wnR.wav,20,landoltCTop.png,V1,frogFront.png,duckFront.png,HinCongWN,h,-20,landoltCR.png,,,,,3,0,240,67,,,h,0,0.767478405265,,,2020_Mar_04_1608,59.9491724364,duckFrog,001,13,
duck,wnL.wav,-20,landoltCL.png,V1,duckFront.png,frogFront.png,HinCongWN,h,20,landoltCTop.png,,,,,3,1,241,7,,,h,0,1.26790122778,,,2020_Mar_04_1608,59.9491724364,duckFrog,001,13,
duck,wnL.wav,20,landoltCBottom.png,V1,frogFront.png,duckFront.png,HcongWN,b,-20,landoltCL.png,,,,,3,2,242,73,,,b,0,0.750852151396,,,2020_Mar_04_1608,59.9491724364,duckFrog,001,13,
duck,wnL.wav,-20,landoltCL.png,V1,duckFront.png,frogFront.png,HinCongWN,h,20,landoltCTop.png,,,,,3,3,243,39,,,h,0,1.23451785956,,,2020_Mar_04_1608,59.9491724364,duckFrog,001,13,
frog,wnR.wav,20,landoltCBottom.png,V1,duckFront.png,frogFront.png,LinCongWN,b,-20,landoltCR.png,,,,,3,4,244,19,,,b,0,0.934334031626,,,2020_Mar_04_1608,59.9491724364,duckFrog,001,13,
duck,quackR.wav,-20,landoltCR.png,V1,duckFront.png,frogFront.png,Hcong,h,20,landoltCTop.png,,,,,3,5,245,36,,,h,0,0.950974214618,,,2020_Mar_04_1608,59.9491724364,duckFrog,001,13,
frog,wnL.wav,-20,landoltCR.png,V1,frogFront.png,duckFront.png,LinCongWN,b,20,landoltCBottom.png,,,,,3,6,246,23,,,b,0,0.934551765968,,,2020_Mar_04_1608,59.9491724364,duckFrog,001,13,
duck,wnL.wav,20,landoltCTop.png,V1,frogFront.png,duckFront.png,HcongWN,h,-20,landoltCR.png,,,,,3,7,247,49,,,h,0,1.13447185673,,,2020_Mar_04_1608,59.9491724364,duckFrog,001,13,
frog,ribbitL.wav,20,landoltCBottom.png,V1,duckFront.png,frogFront.png,Lcong,b,-20,landoltCL.png,,,,,3,8,248,16,,,b,0,0.917859898589,,,2020_Mar_04_1608,59.9491724364,duckFrog,001,13,
duck,ribbitL.wav,-20,landoltCR.png,V1,duckFront.png,frogFront.png,HinCong,b,20,landoltCBottom.png,,,,,3,9,249,62,,,b,0,1.55143021044,,,2020_Mar_04_1608,59.9491724364,duckFrog,001,13,
frog,wnL.wav,20,landoltCTop.png,V1,duckFront.png,frogFront.png,LcongWN,h,-20,landoltCL.png,,,,,3,10,250,25,,,h,0,1.53478049702,,,2020_Mar_04_1608,59.9491724364,duckFrog,001,13,
duck,ribbitR.wav,20,landoltCTop.png,V1,frogFront.png,duckFront.png,HinCong,h,-20,landoltCL.png,,,,,3,11,251,66,,,h,0,1.21807744965,,,2020_Mar_04_1608,59.9491724364,duckFrog,001,13,
frog,quackL.wav,-20,landoltCL.png,V1,frogFront.png,duckFront.png,LinCong,b,20,landoltCBottom.png,,,,,3,12,252,22,,,b,0,1.18456138807,,,2020_Mar_04_1608,59.9491724364,duckFrog,001,13,
duck,quackR.wav,-20,landoltCR.png,V1,duckFront.png,frogFront.png,Hcong,b,20,landoltCBottom.png,,,,,3,13,253,12,,,b,0,1.16798205342,,,2020_Mar_04_1608,59.9491724364,duckFrog,001,13,
duck,quackL.wav,20,landoltCBottom.png,V1,frogFront.png,duckFront.png,Hcong,b,-20,landoltCR.png,,,,,3,14,254,56,,,b,0,0.750839321932,,,2020_Mar_04_1608,59.9491724364,duckFrog,001,13,
duck,wnL.wav,-20,landoltCL.png,V1,duckFront.png,frogFront.png,HinCongWN,h,20,landoltCTop.png,,,,,3,15,255,71,,,h,0,1.21788024245,,,2020_Mar_04_1608,59.9491724364,duckFrog,001,13,
duck,quackL.wav,20,landoltCTop.png,V1,frogFront.png,duckFront.png,Hcong,h,-20,landoltCL.png,,,,,3,16,256,48,,,h,0,1.0343342149,,,2020_Mar_04_1608,59.9491724364,duckFrog,001,13,
duck,wnL.wav,-20,landoltCL.png,V1,duckFront.png,frogFront.png,HinCongWN,h,20,landoltCTop.png,,,,,3,17,257,55,,,h,0,1.05108656408,,,2020_Mar_04_1608,59.9491724364,duckFrog,001,13,
frog,quackL.wav,-20,landoltCL.png,V1,frogFront.png,duckFront.png,LinCong,h,20,landoltCTop.png,,,,,3,18,258,30,,,h,0,1.33483328111,,,2020_Mar_04_1608,59.9491724364,duckFrog,001,13,
duck,quackL.wav,20,landoltCBottom.png,V1,frogFront.png,duckFront.png,Hcong,b,-20,landoltCR.png,,,,,3,19,259,8,,,b,0,0.984355750086,,,2020_Mar_04_1608,59.9491724364,duckFrog,001,13,
duck,ribbitL.wav,-20,landoltCR.png,V1,duckFront.png,frogFront.png,HinCong,b,20,landoltCBottom.png,,,,,3,20,260,14,,,b,0,0.900904110749,,,2020_Mar_04_1608,59.9491724364,duckFrog,001,13,
frog,wnL.wav,-20,landoltCR.png,V1,frogFront.png,duckFront.png,LinCongWN,h,20,landoltCTop.png,,,,,3,21,261,31,,,h,0,1.35150792036,,,2020_Mar_04_1608,59.9491724364,duckFrog,001,13,
duck,ribbitR.wav,20,landoltCBottom.png,V1,frogFront.png,duckFront.png,HinCong,b,-20,landoltCR.png,,,,,3,22,262,58,,,b,0,1.23465311876,,,2020_Mar_04_1608,59.9491724364,duckFrog,001,13,
frog,quackR.wav,20,landoltCTop.png,V1,duckFront.png,frogFront.png,LinCong,h,-20,landoltCR.png,,,,,3,23,263,26,,,h,0,1.53503195453,,,2020_Mar_04_1608,59.9491724364,duckFrog,001,13,
duck,wnL.wav,20,landoltCTop.png,V1,frogFront.png,duckFront.png,HcongWN,h,-20,landoltCR.png,,,,,3,24,264,33,,,h,0,0.751061454968,,,2020_Mar_04_1608,59.9491724364,duckFrog,001,13,
duck,wnL.wav,20,landoltCBottom.png,V1,frogFront.png,duckFront.png,HcongWN,b,-20,landoltCL.png,,,,,3,25,265,9,,,b,0,0.717681019159,,,2020_Mar_04_1608,59.9491724364,duckFrog,001,13,
duck,wnR.wav,20,landoltCTop.png,V1,frogFront.png,duckFront.png,HinCongWN,h,-20,landoltCR.png,,,,,3,26,266,3,,,h,0,0.834487801912,,,2020_Mar_04_1608,59.9491724364,duckFrog,001,13,
duck,wnL.wav,-20,landoltCL.png,V1,duckFront.png,frogFront.png,HinCongWN,b,20,landoltCBottom.png,,,,,3,27,267,63,,,b,0,0.868265218043,,,2020_Mar_04_1608,59.9491724364,duckFrog,001,13,
duck,ribbitR.wav,20,landoltCBottom.png,V1,frogFront.png,duckFront.png,HinCong,b,-20,landoltCR.png,,,,,3,28,268,10,,,b,0,1.40129980809,,,2020_Mar_04_1608,59.9491724364,duckFrog,001,13,
duck,ribbitR.wav,20,landoltCBottom.png,V1,frogFront.png,duckFront.png,HinCong,b,-20,landoltCR.png,,,,,3,29,269,42,,,b,0,0.834463609208,,,2020_Mar_04_1608,59.9491724364,duckFrog,001,13,
duck,wnR.wav,20,landoltCBottom.png,V1,frogFront.png,duckFront.png,HinCongWN,b,-20,landoltCL.png,,,,,3,30,270,75,,,b,0,0.751001706318,,,2020_Mar_04_1608,59.9491724364,duckFrog,001,13,
duck,wnR.wav,20,landoltCBottom.png,V1,frogFront.png,duckFront.png,HinCongWN,b,-20,landoltCL.png,,,,,3,31,271,59,,,b,0,0.784415132162,,,2020_Mar_04_1608,59.9491724364,duckFrog,001,13,
frog,ribbitL.wav,20,landoltCTop.png,V1,duckFront.png,frogFront.png,Lcong,h,-20,landoltCR.png,,,,,3,32,272,24,,,h,0,1.21806315397,,,2020_Mar_04_1608,59.9491724364,duckFrog,001,13,
duck,quackR.wav,-20,landoltCR.png,V1,duckFront.png,frogFront.png,Hcong,b,20,landoltCBottom.png,,,,,3,33,273,60,,,b,0,1.1511263354,,,2020_Mar_04_1608,59.9491724364,duckFrog,001,13,
duck,quackR.wav,-20,landoltCR.png,V1,duckFront.png,frogFront.png,Hcong,h,20,landoltCTop.png,,,,,3,34,274,4,,,h,0,1.08474594908,,,2020_Mar_04_1608,59.9491724364,duckFrog,001,13,
duck,ribbitL.wav,-20,landoltCR.png,V1,duckFront.png,frogFront.png,HinCong,b,20,landoltCBottom.png,,,,,3,35,275,78,,,b,0,1.44775566834,,,2020_Mar_04_1608,59.9491724364,duckFrog,001,13,
duck,quackR.wav,-20,landoltCR.png,V1,duckFront.png,frogFront.png,Hcong,h,20,landoltCTop.png,,,,,3,36,276,68,,,h,0,1.58506173722,,,2020_Mar_04_1608,59.9491724364,duckFrog,001,13,
frog,ribbitR.wav,-20,landoltCL.png,V1,frogFront.png,duckFront.png,Lcong,b,20,landoltCBottom.png,,,,,3,37,277,20,,,b,0,1.43488734812,,,2020_Mar_04_1608,59.9491724364,duckFrog,001,13,
duck,ribbitL.wav,-20,landoltCR.png,V1,duckFront.png,frogFront.png,HinCong,h,20,landoltCTop.png,,,,,3,38,278,38,,,h,0,1.15139795351,,,2020_Mar_04_1608,59.9491724364,duckFrog,001,13,
duck,ribbitR.wav,20,landoltCTop.png,V1,frogFront.png,duckFront.png,HinCong,h,-20,landoltCL.png,,,,,3,39,279,34,,,h,0,1.26786640496,,,2020_Mar_04_1608,59.9491724364,duckFrog,001,13,
duck,wnR.wav,-20,landoltCL.png,V1,duckFront.png,frogFront.png,HcongWN,b,20,landoltCBottom.png,,,,,3,40,280,13,,,b,0,1.1511354993,,,2020_Mar_04_1608,59.9491724364,duckFrog,001,13,
duck,wnR.wav,-20,landoltCL.png,V1,duckFront.png,frogFront.png,HcongWN,h,20,landoltCTop.png,,,,,3,41,281,37,,,h,0,0.867805190064,,,2020_Mar_04_1608,59.9491724364,duckFrog,001,13,
duck,ribbitL.wav,-20,landoltCR.png,V1,duckFront.png,frogFront.png,HinCong,h,20,landoltCTop.png,,,,,3,42,282,70,,,h,0,1.15156766903,,,2020_Mar_04_1608,59.9491724364,duckFrog,001,13,
duck,quackL.wav,20,landoltCTop.png,V1,frogFront.png,duckFront.png,Hcong,h,-20,landoltCL.png,,,,,3,43,283,32,,,h,0,1.20113779028,,,2020_Mar_04_1608,59.9491724364,duckFrog,001,13,
duck,ribbitL.wav,-20,landoltCR.png,V1,duckFront.png,frogFront.png,HinCong,b,20,landoltCBottom.png,,,,,3,44,284,46,,,b,0,0.817522850179,,,2020_Mar_04_1608,59.9491724364,duckFrog,001,13,
duck,ribbitR.wav,20,landoltCTop.png,V1,frogFront.png,duckFront.png,HinCong,h,-20,landoltCL.png,,,,,3,45,285,50,,,h,0,1.13409393735,,,2020_Mar_04_1608,59.9491724364,duckFrog,001,13,
duck,ribbitR.wav,20,landoltCTop.png,V1,frogFront.png,duckFront.png,HinCong,h,-20,landoltCL.png,,,,,3,46,286,2,,,h,0,1.20140317694,,,2020_Mar_04_1608,59.9491724364,duckFrog,001,13,
frog,ribbitR.wav,-20,landoltCL.png,V1,frogFront.png,duckFront.png,Lcong,h,20,landoltCTop.png,,,,,3,47,287,28,,,h,0,1.5681352739,,,2020_Mar_04_1608,59.9491724364,duckFrog,001,13,
duck,quackR.wav,-20,landoltCR.png,V1,duckFront.png,frogFront.png,Hcong,b,20,landoltCBottom.png,,,,,3,48,288,44,,,b,0,1.31835951458,,,2020_Mar_04_1608,59.9491724364,duckFrog,001,13,
duck,wnL.wav,-20,landoltCL.png,V1,duckFront.png,frogFront.png,HinCongWN,b,20,landoltCBottom.png,,,,,3,49,289,15,,,b,0,0.867722348368,,,2020_Mar_04_1608,59.9491724364,duckFrog,001,13,
duck,ribbitR.wav,20,landoltCBottom.png,V1,frogFront.png,duckFront.png,HinCong,b,-20,landoltCR.png,,,,,3,50,290,74,,,b,0,0.767535954568,,,2020_Mar_04_1608,59.9491724364,duckFrog,001,13,
duck,wnL.wav,20,landoltCBottom.png,V1,frogFront.png,duckFront.png,HcongWN,b,-20,landoltCL.png,,,,,3,51,291,41,,,b,0,0.701005280251,,,2020_Mar_04_1608,59.9491724364,duckFrog,001,13,
duck,wnR.wav,-20,landoltCL.png,V1,duckFront.png,frogFront.png,HcongWN,h,20,landoltCTop.png,,,,,3,52,292,69,,,h,0,0.65119103255,,,2020_Mar_04_1608,59.9491724364,duckFrog,001,13,
frog,wnL.wav,20,landoltCBottom.png,V1,duckFront.png,frogFront.png,LcongWN,b,-20,landoltCR.png,,,,,3,53,293,17,,,b,0,0.851024249539,,,2020_Mar_04_1608,59.9491724364,duckFrog,001,13,
duck,quackR.wav,-20,landoltCR.png,V1,duckFront.png,frogFront.png,Hcong,h,20,landoltCTop.png,,,,,3,54,294,52,,,h,0,1.00100949564,,,2020_Mar_04_1608,59.9491724364,duckFrog,001,13,
duck,wnR.wav,20,landoltCBottom.png,V1,frogFront.png,duckFront.png,HinCongWN,b,-20,landoltCL.png,,,,,3,55,295,43,,,b,0,0.767475106259,,,2020_Mar_04_1608,59.9491724364,duckFrog,001,13,
duck,wnR.wav,20,landoltCTop.png,V1,frogFront.png,duckFront.png,HinCongWN,h,-20,landoltCR.png,,,,,3,56,296,51,,,h,0,0.967897012364,,,2020_Mar_04_1608,59.9491724364,duckFrog,001,13,
frog,wnR.wav,-20,landoltCR.png,V1,frogFront.png,duckFront.png,LcongWN,h,20,landoltCTop.png,,,,,3,57,297,29,,,h,0,1.28456340413,,,2020_Mar_04_1608,59.9491724364,duckFrog,001,13,
duck,wnR.wav,20,landoltCTop.png,V1,frogFront.png,duckFront.png,HinCongWN,h,-20,landoltCR.png,,,,,3,58,298,35,,,h,0,1.11771914101,,,2020_Mar_04_1608,59.9491724364,duckFrog,001,13,
frog,wnR.wav,-20,landoltCR.png,V1,frogFront.png,duckFront.png,LcongWN,b,20,landoltCBottom.png,,,,,3,59,299,21,,,b,0,0.91722942199,,,2020_Mar_04_1608,59.9491724364,duckFrog,001,13,
frog,wnR.wav,20,landoltCTop.png,V1,duckFront.png,frogFront.png,LinCongWN,h,-20,landoltCL.png,,,,,3,60,300,27,,,h,0,1.0176991637,,,2020_Mar_04_1608,59.9491724364,duckFrog,001,13,
duck,quackL.wav,20,landoltCBottom.png,V1,frogFront.png,duckFront.png,Hcong,b,-20,landoltCR.png,,,,,3,61,301,72,,,b,0,0.801113231049,,,2020_Mar_04_1608,59.9491724364,duckFrog,001,13,
frog,quackR.wav,20,landoltCBottom.png,V1,duckFront.png,frogFront.png,LinCong,b,-20,landoltCL.png,,,,,3,62,302,18,,,b,0,1.43490640906,,,2020_Mar_04_1608,59.9491724364,duckFrog,001,13,
duck,wnR.wav,-20,landoltCL.png,V1,duckFront.png,frogFront.png,HcongWN,b,20,landoltCBottom.png,,,,,3,63,303,77,,,b,0,0.88415982583,,,2020_Mar_04_1608,59.9491724364,duckFrog,001,13,
duck,wnR.wav,20,landoltCBottom.png,V1,frogFront.png,duckFront.png,HinCongWN,b,-20,landoltCL.png,,,,,3,64,304,11,,,b,0,0.784176870657,,,2020_Mar_04_1608,59.9491724364,duckFrog,001,13,
duck,wnR.wav,-20,landoltCL.png,V1,duckFront.png,frogFront.png,HcongWN,h,20,landoltCTop.png,,,,,3,65,305,5,,,h,0,0.984327158687,,,2020_Mar_04_1608,59.9491724364,duckFrog,001,13,
duck,wnL.wav,20,landoltCTop.png,V1,frogFront.png,duckFront.png,HcongWN,h,-20,landoltCR.png,,,,,3,66,306,65,,,h,0,1.06781105496,,,2020_Mar_04_1608,59.9491724364,duckFrog,001,13,
duck,wnL.wav,-20,landoltCL.png,V1,duckFront.png,frogFront.png,HinCongWN,b,20,landoltCBottom.png,,,,,3,67,307,47,,,b,0,1.15118205195,,,2020_Mar_04_1608,59.9491724364,duckFrog,001,13,
duck,ribbitL.wav,-20,landoltCR.png,V1,duckFront.png,frogFront.png,HinCong,h,20,landoltCTop.png,,,,,3,68,308,6,,,h,0,1.11799222534,,,2020_Mar_04_1608,59.9491724364,duckFrog,001,13,
duck,wnR.wav,-20,landoltCL.png,V1,duckFront.png,frogFront.png,HcongWN,b,20,landoltCBottom.png,,,,,3,69,309,61,,,b,0,1.16809971794,,,2020_Mar_04_1608,59.9491724364,duckFrog,001,13,
duck,quackL.wav,20,landoltCTop.png,V1,frogFront.png,duckFront.png,Hcong,h,-20,landoltCL.png,,,,,3,70,310,0,,,h,0,0.884258795966,,,2020_Mar_04_1608,59.9491724364,duckFrog,001,13,
duck,wnR.wav,-20,landoltCL.png,V1,duckFront.png,frogFront.png,HcongWN,h,20,landoltCTop.png,,,,,3,71,311,53,,,h,0,0.917641431093,,,2020_Mar_04_1608,59.9491724364,duckFrog,001,13,
duck,quackL.wav,20,landoltCBottom.png,V1,frogFront.png,duckFront.png,Hcong,b,-20,landoltCR.png,,,,,3,72,312,40,,,h,0,0.967663149553,,,2020_Mar_04_1608,59.9491724364,duckFrog,001,13,
duck,wnR.wav,-20,landoltCL.png,V1,duckFront.png,frogFront.png,HcongWN,b,20,landoltCBottom.png,,,,,3,73,313,45,,,b,0,0.867602117971,,,2020_Mar_04_1608,59.9491724364,duckFrog,001,13,
duck,wnL.wav,-20,landoltCL.png,V1,duckFront.png,frogFront.png,HinCongWN,b,20,landoltCBottom.png,,,,,3,74,314,79,,,b,0,0.701039736508,,,2020_Mar_04_1608,59.9491724364,duckFrog,001,13,
duck,ribbitL.wav,-20,landoltCR.png,V1,duckFront.png,frogFront.png,HinCong,h,20,landoltCTop.png,,,,,3,75,315,54,,,h,0,0.784599876468,,,2020_Mar_04_1608,59.9491724364,duckFrog,001,13,
duck,quackR.wav,-20,landoltCR.png,V1,duckFront.png,frogFront.png,Hcong,b,20,landoltCBottom.png,,,,,3,76,316,76,,,b,0,0.884516118385,,,2020_Mar_04_1608,59.9491724364,duckFrog,001,13,
duck,quackL.wav,20,landoltCTop.png,V1,frogFront.png,duckFront.png,Hcong,h,-20,landoltCL.png,,,,,3,77,317,64,,,h,0,0.88383652328,,,2020_Mar_04_1608,59.9491724364,duckFrog,001,13,
duck,wnL.wav,20,landoltCTop.png,V1,frogFront.png,duckFront.png,HcongWN,h,-20,landoltCR.png,,,,,3,78,318,1,,,h,0,0.867806289723,,,2020_Mar_04_1608,59.9491724364,duckFrog,001,13,
duck,wnL.wav,20,landoltCBottom.png,V1,frogFront.png,duckFront.png,HcongWN,b,-20,landoltCL.png,,,,,3,79,319,57,,,b,0,0.78436014874,,,2020_Mar_04_1608,59.9491724364,duckFrog,001,13,
duck,wnR.wav,20,landoltCTop.png,V1,frogFront.png,duckFront.png,HinCongWN,h,-20,landoltCR.png,,,,,4,0,320,35,,,h,0,1.23479167698,,,2020_Mar_04_1608,59.9491724364,duckFrog,001,13,
duck,wnR.wav,-20,landoltCL.png,V1,duckFront.png,frogFront.png,HcongWN,b,20,landoltCBottom.png,,,,,4,1,321,13,,,b,0,0.867586356064,,,2020_Mar_04_1608,59.9491724364,duckFrog,001,13,
duck,ribbitL.wav,-20,landoltCR.png,V1,duckFront.png,frogFront.png,HinCong,b,20,landoltCBottom.png,,,,,4,2,322,62,,,b,0,1.51831552788,,,2020_Mar_04_1608,59.9491724364,duckFrog,001,13,
duck,wnR.wav,20,landoltCBottom.png,V1,frogFront.png,duckFront.png,HinCongWN,b,-20,landoltCL.png,,,,,4,3,323,11,,,b,0,1.18447671359,,,2020_Mar_04_1608,59.9491724364,duckFrog,001,13,
duck,wnL.wav,20,landoltCTop.png,V1,frogFront.png,duckFront.png,HcongWN,h,-20,landoltCR.png,,,,,4,4,324,1,,,h,0,0.967925970326,,,2020_Mar_04_1608,59.9491724364,duckFrog,001,13,
duck,quackL.wav,20,landoltCTop.png,V1,frogFront.png,duckFront.png,Hcong,h,-20,landoltCL.png,,,,,4,5,325,64,,,h,0,0.851156209741,,,2020_Mar_04_1608,59.9491724364,duckFrog,001,13,
duck,ribbitL.wav,-20,landoltCR.png,V1,duckFront.png,frogFront.png,HinCong,h,20,landoltCTop.png,,,,,4,6,326,6,,,h,0,1.28457769981,,,2020_Mar_04_1608,59.9491724364,duckFrog,001,13,
duck,ribbitR.wav,20,landoltCTop.png,V1,frogFront.png,duckFront.png,HinCong,h,-20,landoltCL.png,,,,,4,7,327,2,,,h,0,0.917642530781,,,2020_Mar_04_1608,59.9491724364,duckFrog,001,13,
duck,wnR.wav,-20,landoltCL.png,V1,duckFront.png,frogFront.png,HcongWN,b,20,landoltCBottom.png,,,,,4,8,328,77,,,b,0,0.949762746546,,,2020_Mar_04_1608,59.9491724364,duckFrog,001,13,
duck,quackL.wav,20,landoltCBottom.png,V1,frogFront.png,duckFront.png,Hcong,b,-20,landoltCR.png,,,,,4,9,329,40,,,b,0,0.90094773093,,,2020_Mar_04_1608,59.9491724364,duckFrog,001,13,
frog,ribbitL.wav,20,landoltCTop.png,V1,duckFront.png,frogFront.png,Lcong,h,-20,landoltCR.png,,,,,4,10,330,24,,,h,0,1.58503607829,,,2020_Mar_04_1608,59.9491724364,duckFrog,001,13,
frog,ribbitL.wav,20,landoltCBottom.png,V1,duckFront.png,frogFront.png,Lcong,b,-20,landoltCL.png,,,,,4,11,331,16,,,b,0,1.28482292587,,,2020_Mar_04_1608,59.9491724364,duckFrog,001,13,
duck,wnL.wav,20,landoltCTop.png,V1,frogFront.png,duckFront.png,HcongWN,h,-20,landoltCR.png,,,,,4,12,332,65,,,h,0,1.16806929378,,,2020_Mar_04_1608,59.9491724364,duckFrog,001,13,
duck,wnL.wav,20,landoltCTop.png,V1,frogFront.png,duckFront.png,HcongWN,h,-20,landoltCR.png,,,,,4,13,333,33,,,h,0,0.767718866089,,,2020_Mar_04_1608,59.9491724364,duckFrog,001,13,
frog,wnL.wav,20,landoltCBottom.png,V1,duckFront.png,frogFront.png,LcongWN,b,-20,landoltCR.png,,,,,4,14,334,17,,,b,0,0.85110122629,,,2020_Mar_04_1608,59.9491724364,duckFrog,001,13,
duck,wnL.wav,-20,landoltCL.png,V1,duckFront.png,frogFront.png,HinCongWN,h,20,landoltCTop.png,,,,,4,15,335,71,,,h,0,1.05107959951,,,2020_Mar_04_1608,59.9491724364,duckFrog,001,13,
duck,quackR.wav,-20,landoltCR.png,V1,duckFront.png,frogFront.png,Hcong,b,20,landoltCBottom.png,,,,,4,16,336,76,,,b,0,1.1847552963,,,2020_Mar_04_1608,59.9491724364,duckFrog,001,13,
duck,quackR.wav,-20,landoltCR.png,V1,duckFront.png,frogFront.png,Hcong,h,20,landoltCTop.png,,,,,4,17,337,4,,,h,0,1.10136340561,,,2020_Mar_04_1608,59.9491724364,duckFrog,001,13,
duck,ribbitR.wav,20,landoltCBottom.png,V1,frogFront.png,duckFront.png,HinCong,b,-20,landoltCR.png,,,,,4,18,338,42,,,b,0,0.650760329067,,,2020_Mar_04_1608,59.9491724364,duckFrog,001,13,
duck,quackR.wav,-20,landoltCR.png,V1,duckFront.png,frogFront.png,Hcong,h,20,landoltCTop.png,,,,,4,19,339,52,,,h,0,0.834196389769,,,2020_Mar_04_1608,59.9491724364,duckFrog,001,13,
duck,wnR.wav,-20,landoltCL.png,V1,duckFront.png,frogFront.png,HcongWN,h,20,landoltCTop.png,,,,,4,20,340,53,,,h,0,1.00123859325,,,2020_Mar_04_1608,59.9491724364,duckFrog,001,13,
duck,wnL.wav,20,landoltCTop.png,V1,frogFront.png,duckFront.png,HcongWN,h,-20,landoltCR.png,,,,,4,21,341,49,,,h,0,1.03439872878,,,2020_Mar_04_1608,59.9491724364,duckFrog,001,13,
duck,ribbitR.wav,20,landoltCBottom.png,V1,frogFront.png,duckFront.png,HinCong,b,-20,landoltCR.png,,,,,4,22,342,58,,,b,0,1.21811043969,,,2020_Mar_04_1608,59.9491724364,duckFrog,001,13,
duck,quackL.wav,20,landoltCTop.png,V1,frogFront.png,duckFront.png,Hcong,h,-20,landoltCL.png,,,,,4,23,343,48,,,h,0,0.86782461754,,,2020_Mar_04_1608,59.9491724364,duckFrog,001,13,
duck,wnL.wav,20,landoltCBottom.png,V1,frogFront.png,duckFront.png,HcongWN,b,-20,landoltCL.png,,,,,4,24,344,41,,,b,0,0.967915340181,,,2020_Mar_04_1608,59.9491724364,duckFrog,001,13,
duck,ribbitL.wav,-20,landoltCR.png,V1,duckFront.png,frogFront.png,HinCong,h,20,landoltCTop.png,,,,,4,25,345,70,,,h,0,0.784169906081,,,2020_Mar_04_1608,59.9491724364,duckFrog,001,13,
frog,ribbitR.wav,-20,landoltCL.png,V1,frogFront.png,duckFront.png,Lcong,b,20,landoltCBottom.png,,,,,4,26,346,20,,,b,0,0.884666406404,,,2020_Mar_04_1608,59.9491724364,duckFrog,001,13,
duck,wnL.wav,-20,landoltCL.png,V1,duckFront.png,frogFront.png,HinCongWN,b,20,landoltCBottom.png,,,,,4,27,347,15,,,b,0,0.951200013194,,,2020_Mar_04_1608,59.9491724364,duckFrog,001,13,
frog,ribbitR.wav,-20,landoltCL.png,V1,frogFront.png,duckFront.png,Lcong,h,20,landoltCTop.png,,,,,4,28,348,28,,,h,0,0.634280331142,,,2020_Mar_04_1608,59.9491724364,duckFrog,001,13,
duck,wnL.wav,-20,landoltCL.png,V1,duckFront.png,frogFront.png,HinCongWN,h,20,landoltCTop.png,,,,,4,29,349,55,,,h,0,0.6009655089,,,2020_Mar_04_1608,59.9491724364,duckFrog,001,13,
frog,wnL.wav,-20,landoltCR.png,V1,frogFront.png,duckFront.png,LinCongWN,h,20,landoltCTop.png,,,,,4,30,350,31,,,h,0,0.751047525846,,,2020_Mar_04_1608,59.9491724364,duckFrog,001,13,
duck,quackL.wav,20,landoltCTop.png,V1,frogFront.png,duckFront.png,Hcong,h,-20,landoltCL.png,,,,,4,31,351,0,,,h,0,0.867625210987,,,2020_Mar_04_1608,59.9491724364,duckFrog,001,13,
frog,quackL.wav,-20,landoltCL.png,V1,frogFront.png,duckFront.png,LinCong,h,20,landoltCTop.png,,,,,4,32,352,30,,,h,0,1.20119460649,,,2020_Mar_04_1608,59.9491724364,duckFrog,001,13,
duck,wnL.wav,-20,landoltCL.png,V1,duckFront.png,frogFront.png,HinCongWN,h,20,landoltCTop.png,,,,,4,33,353,7,,,h,0,1.10130512319,,,2020_Mar_04_1608,59.9491724364,duckFrog,001,13,
duck,quackR.wav,-20,landoltCR.png,V1,duckFront.png,frogFront.png,Hcong,h,20,landoltCTop.png,,,,,4,34,354,36,,,h,0,0.851106724644,,,2020_Mar_04_1608,59.9491724364,duckFrog,001,13,
duck,ribbitR.wav,20,landoltCBottom.png,V1,frogFront.png,duckFront.png,HinCong,b,-20,landoltCR.png,,,,,4,35,355,10,,,b,0,0.85089998701,,,2020_Mar_04_1608,59.9491724364,duckFrog,001,13,
duck,ribbitL.wav,-20,landoltCR.png,V1,duckFront.png,frogFront.png,HinCong,h,20,landoltCTop.png,,,,,4,36,356,54,,,h,0,1.15118021917,,,2020_Mar_04_1608,59.9491724364,duckFrog,001,13,
duck,wnR.wav,20,landoltCTop.png,V1,frogFront.png,duckFront.png,HinCongWN,h,-20,landoltCR.png,,,,,4,37,357,3,,,h,0,1.08442961116,,,2020_Mar_04_1608,59.9491724364,duckFrog,001,13,
duck,quackL.wav,20,landoltCBottom.png,V1,frogFront.png,duckFront.png,Hcong,b,-20,landoltCR.png,,,,,4,38,358,8,,,b,0,1.31816120772,,,2020_Mar_04_1608,59.9491724364,duckFrog,001,13,
duck,ribbitL.wav,-20,landoltCR.png,V1,duckFront.png,frogFront.png,HinCong,b,20,landoltCBottom.png,,,,,4,39,359,14,,,b,0,0.884269426111,,,2020_Mar_04_1608,59.9491724364,duckFrog,001,13,
frog,wnL.wav,20,landoltCTop.png,V1,duckFront.png,frogFront.png,LcongWN,h,-20,landoltCL.png,,,,,4,40,360,25,,,h,0,1.0343884652,,,2020_Mar_04_1608,59.9491724364,duckFrog,001,13,
duck,wnR.wav,-20,landoltCL.png,V1,duckFront.png,frogFront.png,HcongWN,b,20,landoltCBottom.png,,,,,4,41,361,61,,,b,0,1.25117893622,,,2020_Mar_04_1608,59.9491724364,duckFrog,001,13,
frog,quackR.wav,20,landoltCTop.png,V1,duckFront.png,frogFront.png,LinCong,h,-20,landoltCR.png,,,,,4,42,362,26,,,h,0,1.13444913024,,,2020_Mar_04_1608,59.9491724364,duckFrog,001,13,
duck,ribbitL.wav,-20,landoltCR.png,V1,duckFront.png,frogFront.png,HinCong,b,20,landoltCBottom.png,,,,,4,43,363,46,,,b,0,1.20127341605,,,2020_Mar_04_1608,59.9491724364,duckFrog,001,13,
duck,quackL.wav,20,landoltCTop.png,V1,frogFront.png,duckFront.png,Hcong,h,-20,landoltCL.png,,,,,4,44,364,32,,,h,0,1.06786237282,,,2020_Mar_04_1608,59.9491724364,duckFrog,001,13,
duck,wnR.wav,20,landoltCTop.png,V1,frogFront.png,duckFront.png,HinCongWN,h,-20,landoltCR.png,,,,,4,45,365,51,,,h,0,0.984570918547,,,2020_Mar_04_1608,59.9491724364,duckFrog,001,13,
frog,quackR.wav,20,landoltCBottom.png,V1,duckFront.png,frogFront.png,LinCong,b,-20,landoltCL.png,,,,,4,46,366,18,,,b,0,1.15137596015,,,2020_Mar_04_1608,59.9491724364,duckFrog,001,13,
duck,quackL.wav,20,landoltCBottom.png,V1,frogFront.png,duckFront.png,Hcong,b,-20,landoltCR.png,,,,,4,47,367,56,,,b,0,1.10132528376,,,2020_Mar_04_1608,59.9491724364,duckFrog,001,13,
duck,wnR.wav,-20,landoltCL.png,V1,duckFront.png,frogFront.png,HcongWN,h,20,landoltCTop.png,,,,,4,48,368,37,,,h,0,1.3346661315,,,2020_Mar_04_1608,59.9491724364,duckFrog,001,13,
duck,ribbitL.wav,-20,landoltCR.png,V1,duckFront.png,frogFront.png,HinCong,h,20,landoltCTop.png,,,,,4,49,369,38,,,h,0,1.01794622254,,,2020_Mar_04_1608,59.9491724364,duckFrog,001,13,
duck,wnL.wav,-20,landoltCL.png,V1,duckFront.png,frogFront.png,HinCongWN,b,20,landoltCBottom.png,,,,,4,50,370,63,,,b,0,0.934497149108,,,2020_Mar_04_1608,59.9491724364,duckFrog,001,13,
frog,wnR.wav,-20,landoltCR.png,V1,frogFront.png,duckFront.png,LcongWN,h,20,landoltCTop.png,,,,,4,51,371,29,,,h,0,1.0345772416,,,2020_Mar_04_1608,59.9491724364,duckFrog,001,13,
duck,ribbitR.wav,20,landoltCTop.png,V1,frogFront.png,duckFront.png,HinCong,h,-20,landoltCL.png,,,,,4,52,372,34,,,h,0,1.36798755176,,,2020_Mar_04_1608,59.9491724364,duckFrog,001,13,
frog,wnR.wav,-20,landoltCR.png,V1,frogFront.png,duckFront.png,LcongWN,b,20,landoltCBottom.png,,,,,4,53,373,21,,,b,0,0.950995108287,,,2020_Mar_04_1608,59.9491724364,duckFrog,001,13,
frog,wnR.wav,20,landoltCBottom.png,V1,duckFront.png,frogFront.png,LinCongWN,b,-20,landoltCR.png,,,,,4,54,374,19,,,b,0,0.917587913893,,,2020_Mar_04_1608,59.9491724364,duckFrog,001,13,
duck,wnL.wav,-20,landoltCL.png,V1,duckFront.png,frogFront.png,HinCongWN,b,20,landoltCBottom.png,,,,,4,55,375,79,,,b,0,0.950932793756,,,2020_Mar_04_1608,59.9491724364,duckFrog,001,13,
duck,wnR.wav,20,landoltCBottom.png,V1,frogFront.png,duckFront.png,HinCongWN,b,-20,landoltCL.png,,,,,4,56,376,75,,,b,0,1.2845377452,,,2020_Mar_04_1608,59.9491724364,duckFrog,001,13,
duck,ribbitR.wav,20,landoltCBottom.png,V1,frogFront.png,duckFront.png,HinCong,b,-20,landoltCR.png,,,,,4,57,377,74,,,b,0,1.1513572658,,,2020_Mar_04_1608,59.9491724364,duckFrog,001,13,
duck,ribbitR.wav,20,landoltCTop.png,V1,frogFront.png,duckFront.png,HinCong,h,-20,landoltCL.png,,,,,4,58,378,66,,,h,0,1.03512414341,,,2020_Mar_04_1608,59.9491724364,duckFrog,001,13,
duck,wnR.wav,-20,landoltCL.png,V1,duckFront.png,frogFront.png,HcongWN,h,20,landoltCTop.png,,,,,4,59,379,69,,,h,0,1.05109352863,,,2020_Mar_04_1608,59.9491724364,duckFrog,001,13,
duck,ribbitR.wav,20,landoltCTop.png,V1,frogFront.png,duckFront.png,HinCong,h,-20,landoltCL.png,,,,,4,60,380,50,,,h,0,0.750842987502,,,2020_Mar_04_1608,59.9491724364,duckFrog,001,13,
duck,wnL.wav,-20,landoltCL.png,V1,duckFront.png,frogFront.png,HinCongWN,b,20,landoltCBottom.png,,,,,4,61,381,47,,,b,0,0.884257696307,,,2020_Mar_04_1608,59.9491724364,duckFrog,001,13,
duck,wnL.wav,20,landoltCBottom.png,V1,frogFront.png,duckFront.png,HcongWN,b,-20,landoltCL.png,,,,,4,62,382,9,,,b,0,1.15110764105,,,2020_Mar_04_1608,59.9491724364,duckFrog,001,13,
duck,wnR.wav,20,landoltCBottom.png,V1,frogFront.png,duckFront.png,HinCongWN,b,-20,landoltCL.png,,,,,4,63,383,43,,,b,0,1.08463671536,,,2020_Mar_04_1608,59.9491724364,duckFrog,001,13,
duck,quackR.wav,-20,landoltCR.png,V1,duckFront.png,frogFront.png,Hcong,b,20,landoltCBottom.png,,,,,4,64,384,60,,,b,0,1.16780977204,,,2020_Mar_04_1608,59.9491724364,duckFrog,001,13,
duck,wnL.wav,20,landoltCBottom.png,V1,frogFront.png,duckFront.png,HcongWN,b,-20,landoltCL.png,,,,,4,65,385,73,,,b,0,0.71745485405,,,2020_Mar_04_1608,59.9491724364,duckFrog,001,13,
duck,quackR.wav,-20,landoltCR.png,V1,duckFront.png,frogFront.png,Hcong,b,20,landoltCBottom.png,,,,,4,66,386,12,,,b,0,1.2679320185,,,2020_Mar_04_1608,59.9491724364,duckFrog,001,13,
duck,wnR.wav,-20,landoltCL.png,V1,duckFront.png,frogFront.png,HcongWN,b,20,landoltCBottom.png,,,,,4,67,387,45,,,b,0,0.851117721322,,,2020_Mar_04_1608,59.9491724364,duckFrog,001,13,
duck,wnL.wav,20,landoltCBottom.png,V1,frogFront.png,duckFront.png,HcongWN,b,-20,landoltCL.png,,,,,4,68,388,57,,,b,0,0.967683310155,,,2020_Mar_04_1608,59.9491724364,duckFrog,001,13,
duck,ribbitL.wav,-20,landoltCR.png,V1,duckFront.png,frogFront.png,HinCong,b,20,landoltCBottom.png,,,,,4,69,389,78,,,b,0,0.934254488937,,,2020_Mar_04_1608,59.9491724364,duckFrog,001,13,
frog,wnL.wav,-20,landoltCR.png,V1,frogFront.png,duckFront.png,LinCongWN,b,20,landoltCBottom.png,,,,,4,70,390,23,,,b,0,1.28480496464,,,2020_Mar_04_1608,59.9491724364,duckFrog,001,13,
duck,quackL.wav,20,landoltCBottom.png,V1,frogFront.png,duckFront.png,Hcong,b,-20,landoltCR.png,,,,,4,71,391,72,,,b,0,1.20117664523,,,2020_Mar_04_1608,59.9491724364,duckFrog,001,13,
duck,wnR.wav,-20,landoltCL.png,V1,duckFront.png,frogFront.png,HcongWN,h,20,landoltCTop.png,,,,,4,72,392,5,,,h,0,1.56814920303,,,2020_Mar_04_1608,59.9491724364,duckFrog,001,13,
duck,wnL.wav,-20,landoltCL.png,V1,duckFront.png,frogFront.png,HinCongWN,h,20,landoltCTop.png,,,,,4,73,393,39,,,h,0,1.43491264051,,,2020_Mar_04_1608,59.9491724364,duckFrog,001,13,
duck,quackR.wav,-20,landoltCR.png,V1,duckFront.png,frogFront.png,Hcong,h,20,landoltCTop.png,,,,,4,74,394,68,,,h,0,0.81779923354,,,2020_Mar_04_1608,59.9491724364,duckFrog,001,13,
frog,wnR.wav,20,landoltCTop.png,V1,duckFront.png,frogFront.png,LinCongWN,h,-20,landoltCL.png,,,,,4,75,395,27,,,h,0,1.33462214473,,,2020_Mar_04_1608,59.9491724364,duckFrog,001,13,
frog,quackL.wav,-20,landoltCL.png,V1,frogFront.png,duckFront.png,LinCong,b,20,landoltCBottom.png,,,,,4,76,396,22,,,b,0,0.934210502193,,,2020_Mar_04_1608,59.9491724364,duckFrog,001,13,
duck,wnR.wav,20,landoltCBottom.png,V1,frogFront.png,duckFront.png,HinCongWN,b,-20,landoltCL.png,,,,,4,77,397,59,,,b,0,1.26790965855,,,2020_Mar_04_1608,59.9491724364,duckFrog,001,13,
duck,quackR.wav,-20,landoltCR.png,V1,duckFront.png,frogFront.png,Hcong,b,20,landoltCBottom.png,,,,,4,78,398,44,,,b,0,1.16744761454,,,2020_Mar_04_1608,59.9491724364,duckFrog,001,13,
duck,wnR.wav,20,landoltCTop.png,V1,frogFront.png,duckFront.png,HinCongWN,h,-20,landoltCR.png,,,,,4,79,399,67,,,h,0,1.11779355191,,,2020_Mar_04_1608,59.9491724364,duckFrog,001,13,
duck,ribbitR.wav,20,landoltCBottom.png,V1,frogFront.png,duckFront.png,HinCong,b,-20,landoltCR.png,,,,,5,0,400,10,,,b,0,1.15139318828,,,2020_Mar_04_1608,59.9491724364,duckFrog,001,13,
duck,wnR.wav,20,landoltCTop.png,V1,frogFront.png,duckFront.png,HinCongWN,h,-20,landoltCR.png,,,,,5,1,401,3,,,h,0,1.05130393189,,,2020_Mar_04_1608,59.9491724364,duckFrog,001,13,
duck,wnL.wav,-20,landoltCL.png,V1,duckFront.png,frogFront.png,HinCongWN,h,20,landoltCTop.png,,,,,5,2,402,71,,,h,0,1.45135011795,,,2020_Mar_04_1608,59.9491724364,duckFrog,001,13,
duck,quackR.wav,-20,landoltCR.png,V1,duckFront.png,frogFront.png,Hcong,b,20,landoltCBottom.png,,,,,5,3,403,76,,,b,0,1.08462425246,,,2020_Mar_04_1608,59.9491724364,duckFrog,001,13,
duck,wnR.wav,-20,landoltCL.png,V1,duckFront.png,frogFront.png,HcongWN,b,20,landoltCBottom.png,,,,,5,4,404,77,,,b,0,1.20141893884,,,2020_Mar_04_1608,59.9491724364,duckFrog,001,13,
frog,wnL.wav,20,landoltCTop.png,V1,duckFront.png,frogFront.png,LcongWN,h,-20,landoltCL.png,,,,,5,5,405,25,,,h,0,1.20122173164,,,2020_Mar_04_1608,59.9491724364,duckFrog,001,13,
duck,ribbitL.wav,-20,landoltCR.png,V1,duckFront.png,frogFront.png,HinCong,h,20,landoltCTop.png,,,,,5,6,406,70,,,h,0,1.18449577453,,,2020_Mar_04_1608,59.9491724364,duckFrog,001,13,
duck,quackR.wav,-20,landoltCR.png,V1,duckFront.png,frogFront.png,Hcong,h,20,landoltCTop.png,,,,,5,7,407,36,,,h,0,0.801102234342,,,2020_Mar_04_1608,59.9491724364,duckFrog,001,13,
duck,wnR.wav,20,landoltCBottom.png,V1,frogFront.png,duckFront.png,HinCongWN,b,-20,landoltCL.png,,,,,5,8,408,59,,,b,0,0.850914649229,,,2020_Mar_04_1608,59.9491724364,duckFrog,001,13,
duck,wnL.wav,20,landoltCTop.png,V1,frogFront.png,duckFront.png,HcongWN,h,-20,landoltCR.png,,,,,5,9,409,49,,,h,0,0.734362989577,,,2020_Mar_04_1608,59.9491724364,duckFrog,001,13,
frog,wnL.wav,-20,landoltCR.png,V1,frogFront.png,duckFront.png,LinCongWN,h,20,landoltCTop.png,,,,,5,10,410,31,,,h,0,1.28457916607,,,2020_Mar_04_1608,59.9491724364,duckFrog,001,13,
duck,ribbitL.wav,-20,landoltCR.png,V1,duckFront.png,frogFront.png,HinCong,b,20,landoltCBottom.png,,,,,5,11,411,14,,,b,0,0.934563495772,,,2020_Mar_04_1608,59.9491724364,duckFrog,001,13,
duck,quackL.wav,20,landoltCBottom.png,V1,frogFront.png,duckFront.png,Hcong,b,-20,landoltCR.png,,,,,5,12,412,72,,,b,0,1.1678075727,,,2020_Mar_04_1608,59.9491724364,duckFrog,001,13,
duck,wnL.wav,-20,landoltCL.png,V1,duckFront.png,frogFront.png,HinCongWN,b,20,landoltCBottom.png,,,,,5,13,413,15,,,b,0,0.784219391178,,,2020_Mar_04_1608,59.9491724364,duckFrog,001,13,
duck,wnL.wav,20,landoltCBottom.png,V1,frogFront.png,duckFront.png,HcongWN,b,-20,landoltCL.png,,,,,5,14,414,73,,,b,0,1.05103597933,,,2020_Mar_04_1608,59.9491724364,duckFrog,001,13,
duck,quackR.wav,-20,landoltCR.png,V1,duckFront.png,frogFront.png,Hcong,b,20,landoltCBottom.png,,,,,5,15,415,44,,,b,0,0.750810730591,,,2020_Mar_04_1608,59.9491724364,duckFrog,001,13,
frog,wnR.wav,-20,landoltCR.png,V1,frogFront.png,duckFront.png,LcongWN,b,20,landoltCBottom.png,,,,,5,16,416,21,,,b,0,1.31817733622,,,2020_Mar_04_1608,59.9491724364,duckFrog,001,13,
duck,quackL.wav,20,landoltCTop.png,V1,frogFront.png,duckFront.png,Hcong,h,-20,landoltCL.png,,,,,5,17,417,48,,,h,0,1.28458283161,,,2020_Mar_04_1608,59.9491724364,duckFrog,001,13,
duck,ribbitR.wav,20,landoltCTop.png,V1,frogFront.png,duckFront.png,HinCong,h,-20,landoltCL.png,,,,,5,18,418,66,,,h,0,0.917862097907,,,2020_Mar_04_1608,59.9491724364,duckFrog,001,13,
frog,wnR.wav,20,landoltCTop.png,V1,duckFront.png,frogFront.png,LinCongWN,h,-20,landoltCL.png,,,,,5,19,419,27,,,h,0,0.984578982752,,,2020_Mar_04_1608,59.9491724364,duckFrog,001,13,
duck,wnR.wav,20,landoltCTop.png,V1,frogFront.png,duckFront.png,HinCongWN,h,-20,landoltCR.png,,,,,5,20,420,67,,,h,0,0.917854766798,,,2020_Mar_04_1608,59.9491724364,duckFrog,001,13,
duck,quackR.wav,-20,landoltCR.png,V1,duckFront.png,frogFront.png,Hcong,h,20,landoltCTop.png,,,,,5,21,421,52,,,h,0,1.10106942756,,,2020_Mar_04_1608,59.9491724364,duckFrog,001,13,
frog,wnL.wav,-20,landoltCR.png,V1,frogFront.png,duckFront.png,LinCongWN,b,20,landoltCBottom.png,,,,,5,22,422,23,,,b,0,1.15135360023,,,2020_Mar_04_1608,59.9491724364,duckFrog,001,13,
duck,ribbitR.wav,20,landoltCBottom.png,V1,frogFront.png,duckFront.png,HinCong,b,-20,landoltCR.png,,,,,5,23,423,42,,,b,0,0.767501131748,,,2020_Mar_04_1608,59.9491724364,duckFrog,001,13,
duck,wnL.wav,20,landoltCBottom.png,V1,frogFront.png,duckFront.png,HcongWN,b,-20,landoltCL.png,,,,,5,24,424,41,,,b,0,0.734343928634,,,2020_Mar_04_1608,59.9491724364,duckFrog,001,13,
duck,wnL.wav,20,landoltCTop.png,V1,frogFront.png,duckFront.png,HcongWN,h,-20,landoltCR.png,,,,,5,25,425,1,,,h,0,0.767741226009,,,2020_Mar_04_1608,59.9491724364,duckFrog,001,13,
duck,ribbitL.wav,-20,landoltCR.png,V1,duckFront.png,frogFront.png,HinCong,b,20,landoltCBottom.png,,,,,5,26,426,46,,,b,0,0.800864339428,,,2020_Mar_04_1608,59.9491724364,duckFrog,001,13,
duck,quackL.wav,20,landoltCBottom.png,V1,frogFront.png,duckFront.png,Hcong,b,-20,landoltCR.png,,,,,5,27,427,8,,,b,0,0.717115789594,,,2020_Mar_04_1608,59.9491724364,duckFrog,001,13,
duck,wnR.wav,-20,landoltCL.png,V1,duckFront.png,frogFront.png,HcongWN,b,20,landoltCBottom.png,,,,,5,28,428,13,,,b,0,0.851125785586,,,2020_Mar_04_1608,59.9491724364,duckFrog,001,13,
duck,ribbitR.wav,20,landoltCTop.png,V1,frogFront.png,duckFront.png,HinCong,h,-20,landoltCL.png,,,,,5,29,429,34,,,h,0,0.700796343241,,,2020_Mar_04_1608,59.9491724364,duckFrog,001,13,
duck,ribbitR.wav,20,landoltCTop.png,V1,frogFront.png,duckFront.png,HinCong,h,-20,landoltCL.png,,,,,5,30,430,50,,,h,0,1.28480826365,,,2020_Mar_04_1608,59.9491724364,duckFrog,001,13,
duck,wnR.wav,-20,landoltCL.png,V1,duckFront.png,frogFront.png,HcongWN,h,20,landoltCTop.png,,,,,5,31,431,69,,,h,0,0.800862140051,,,2020_Mar_04_1608,59.9491724364,duckFrog,001,13,
duck,wnR.wav,20,landoltCBottom.png,V1,frogFront.png,duckFront.png,HinCongWN,b,-20,landoltCL.png,,,,,5,32,432,43,,,b,0,0.717507638125,,,2020_Mar_04_1608,59.9491724364,duckFrog,001,13,
duck,wnL.wav,-20,landoltCL.png,V1,duckFront.png,frogFront.png,HinCongWN,b,20,landoltCBottom.png,,,,,5,33,433,79,,,b,0,0.717477580503,,,2020_Mar_04_1608,59.9491724364,duckFrog,001,13,
duck,quackL.wav,20,landoltCTop.png,V1,frogFront.png,duckFront.png,Hcong,h,-20,landoltCL.png,,,,,5,34,434,32,,,h,0,0.767514327774,,,2020_Mar_04_1608,59.9491724364,duckFrog,001,13,
duck,ribbitL.wav,-20,landoltCR.png,V1,duckFront.png,frogFront.png,HinCong,b,20,landoltCBottom.png,,,,,5,35,435,62,,,b,0,0.700733662117,,,2020_Mar_04_1608,59.9491724364,duckFrog,001,13,
duck,quackR.wav,-20,landoltCR.png,V1,duckFront.png,frogFront.png,Hcong,h,20,landoltCTop.png,,,,,5,36,436,4,,,h,0,0.700997582549,,,2020_Mar_04_1608,59.9491724364,duckFrog,001,13,
duck,wnL.wav,20,landoltCTop.png,V1,frogFront.png,duckFront.png,HcongWN,h,-20,landoltCR.png,,,,,5,37,437,33,,,h,0,0.867562896456,,,2020_Mar_04_1608,59.9491724364,duckFrog,001,13,
duck,quackL.wav,20,landoltCBottom.png,V1,frogFront.png,duckFront.png,Hcong,b,-20,landoltCR.png,,,,,5,38,438,40,,,b,0,0.751080149348,,,2020_Mar_04_1608,59.9491724364,duckFrog,001,13,
duck,wnL.wav,-20,landoltCL.png,V1,duckFront.png,frogFront.png,HinCongWN,b,20,landoltCBottom.png,,,,,5,39,439,47,,,b,0,0.684090913273,,,2020_Mar_04_1608,59.9491724364,duckFrog,001,13,
duck,wnL.wav,20,landoltCBottom.png,V1,frogFront.png,duckFront.png,HcongWN,b,-20,landoltCL.png,,,,,5,40,440,57,,,b,0,0.517279640189,,,2020_Mar_04_1608,59.9491724364,duckFrog,001,13,
duck,wnR.wav,-20,landoltCL.png,V1,duckFront.png,frogFront.png,HcongWN,b,20,landoltCBottom.png,,,,,5,41,441,61,,,b,0,0.78411638891,,,2020_Mar_04_1608,59.9491724364,duckFrog,001,13,
frog,quackL.wav,-20,landoltCL.png,V1,frogFront.png,duckFront.png,LinCong,b,20,landoltCBottom.png,,,,,5,42,442,22,,,b,0,0.968077724567,,,2020_Mar_04_1608,59.9491724364,duckFrog,001,13,
duck,ribbitR.wav,20,landoltCBottom.png,V1,frogFront.png,duckFront.png,HinCong,b,-20,landoltCR.png,,,,,5,43,443,74,,,b,0,1.91464666737,,,2020_Mar_04_1608,59.9491724364,duckFrog,001,13,
duck,ribbitR.wav,20,landoltCTop.png,V1,frogFront.png,duckFront.png,HinCong,h,-20,landoltCL.png,,,,,5,44,444,2,,,h,0,0.917841204209,,,2020_Mar_04_1608,59.9491724364,duckFrog,001,13,
duck,wnL.wav,-20,landoltCL.png,V1,duckFront.png,frogFront.png,HinCongWN,h,20,landoltCTop.png,,,,,5,45,445,55,,,h,0,1.00163923908,,,2020_Mar_04_1608,59.9491724364,duckFrog,001,13,
duck,wnL.wav,20,landoltCBottom.png,V1,frogFront.png,duckFront.png,HcongWN,b,-20,landoltCL.png,,,,,5,46,446,9,,,b,0,1.18456725299,,,2020_Mar_04_1608,59.9491724364,duckFrog,001,13,
duck,ribbitL.wav,-20,landoltCR.png,V1,duckFront.png,frogFront.png,HinCong,h,20,landoltCTop.png,,,,,5,47,447,6,,,h,0,0.88428922015,,,2020_Mar_04_1608,59.9491724364,duckFrog,001,13,
duck,wnR.wav,20,landoltCBottom.png,V1,frogFront.png,duckFront.png,HinCongWN,b,-20,landoltCL.png,,,,,5,48,448,11,,,b,0,1.20150581267,,,2020_Mar_04_1608,59.9491724364,duckFrog,001,13,
frog,wnR.wav,20,landoltCBottom.png,V1,duckFront.png,frogFront.png,LinCongWN,b,-20,landoltCR.png,,,,,5,49,449,19,,,b,0,1.4852818542,,,2020_Mar_04_1608,59.9491724364,duckFrog,001,13,
duck,quackL.wav,20,landoltCTop.png,V1,frogFront.png,duckFront.png,Hcong,h,-20,landoltCL.png,,,,,5,50,450,0,,,h,0,1.11835694872,,,2020_Mar_04_1608,59.9491724364,duckFrog,001,13,
duck,ribbitL.wav,-20,landoltCR.png,V1,duckFront.png,frogFront.png,HinCong,b,20,landoltCBottom.png,,,,,5,51,451,78,,,b,0,0.983030649571,,,2020_Mar_04_1608,59.9491724364,duckFrog,001,13,
duck,wnL.wav,-20,landoltCL.png,V1,duckFront.png,frogFront.png,HinCongWN,b,20,landoltCBottom.png,,,,,5,52,452,63,,,b,0,1.45127314117,,,2020_Mar_04_1608,59.9491724364,duckFrog,001,13,
duck,wnR.wav,-20,landoltCL.png,V1,duckFront.png,frogFront.png,HcongWN,h,20,landoltCTop.png,,,,,5,53,453,5,,,h,0,1.55188840567,,,2020_Mar_04_1608,59.9491724364,duckFrog,001,13,
frog,wnL.wav,20,landoltCBottom.png,V1,duckFront.png,frogFront.png,LcongWN,b,-20,landoltCR.png,,,,,5,54,454,17,,,b,0,1.47391824698,,,2020_Mar_04_1608,59.9491724364,duckFrog,001,13,
duck,wnR.wav,20,landoltCBottom.png,V1,frogFront.png,duckFront.png,HinCongWN,b,-20,landoltCL.png,,,,,5,55,455,75,,,b,0,1.1179599684,,,2020_Mar_04_1608,59.9491724364,duckFrog,001,13,
duck,wnR.wav,-20,landoltCL.png,V1,duckFront.png,frogFront.png,HcongWN,b,20,landoltCBottom.png,,,,,5,56,456,45,,,b,0,1.11792734492,,,2020_Mar_04_1608,59.9491724364,duckFrog,001,13,
duck,quackR.wav,-20,landoltCR.png,V1,duckFront.png,frogFront.png,Hcong,h,20,landoltCTop.png,,,,,5,57,457,68,,,h,0,0.918109523307,,,2020_Mar_04_1608,59.9491724364,duckFrog,001,13,
duck,quackL.wav,20,landoltCTop.png,V1,frogFront.png,duckFront.png,Hcong,h,-20,landoltCL.png,,,,,5,58,458,64,,,h,0,1.03456734461,,,2020_Mar_04_1608,59.9491724364,duckFrog,001,13,
duck,wnL.wav,-20,landoltCL.png,V1,duckFront.png,frogFront.png,HinCongWN,h,20,landoltCTop.png,,,,,5,59,459,7,,,h,0,0.968076624878,,,2020_Mar_04_1608,59.9491724364,duckFrog,001,13,
duck,ribbitL.wav,-20,landoltCR.png,V1,duckFront.png,frogFront.png,HinCong,h,20,landoltCTop.png,,,,,5,60,460,54,,,h,0,0.751345902536,,,2020_Mar_04_1608,59.9491724364,duckFrog,001,13,
frog,quackR.wav,20,landoltCTop.png,V1,duckFront.png,frogFront.png,LinCong,h,-20,landoltCR.png,,,,,5,61,461,26,,,h,0,1.43475318857,,,2020_Mar_04_1608,59.9491724364,duckFrog,001,13,
duck,wnL.wav,-20,landoltCL.png,V1,duckFront.png,frogFront.png,HinCongWN,h,20,landoltCTop.png,,,,,5,62,462,39,,,h,0,1.16816056625,,,2020_Mar_04_1608,59.9491724364,duckFrog,001,13,
frog,ribbitL.wav,20,landoltCBottom.png,V1,duckFront.png,frogFront.png,Lcong,b,-20,landoltCL.png,,,,,5,63,463,16,,,b,0,1.20155713052,,,2020_Mar_04_1608,59.9491724364,duckFrog,001,13,
duck,ribbitR.wav,20,landoltCBottom.png,V1,frogFront.png,duckFront.png,HinCong,b,-20,landoltCR.png,,,,,5,64,464,58,,,b,0,1.16822947882,,,2020_Mar_04_1608,59.9491724364,duckFrog,001,13,
duck,wnR.wav,20,landoltCTop.png,V1,frogFront.png,duckFront.png,HinCongWN,h,-20,landoltCR.png,,,,,5,65,465,51,,,h,0,0.88484125369,,,2020_Mar_04_1608,59.9491724364,duckFrog,001,13,
duck,wnL.wav,20,landoltCTop.png,V1,frogFront.png,duckFront.png,HcongWN,h,-20,landoltCR.png,,,,,5,66,466,65,,,h,0,0.834755754477,,,2020_Mar_04_1608,59.9491724364,duckFrog,001,13,
frog,ribbitR.wav,-20,landoltCL.png,V1,frogFront.png,duckFront.png,Lcong,h,20,landoltCTop.png,,,,,5,67,467,28,,,h,0,1.30156831047,,,2020_Mar_04_1608,59.9491724364,duckFrog,001,13,
duck,quackR.wav,-20,landoltCR.png,V1,duckFront.png,frogFront.png,Hcong,b,20,landoltCBottom.png,,,,,5,68,468,12,,,b,0,1.10122777984,,,2020_Mar_04_1608,59.9491724364,duckFrog,001,13,
frog,ribbitL.wav,20,landoltCTop.png,V1,duckFront.png,frogFront.png,Lcong,h,-20,landoltCR.png,,,,,5,69,469,24,,,h,0,1.23468354292,,,2020_Mar_04_1608,59.9491724364,duckFrog,001,13,
duck,quackL.wav,20,landoltCBottom.png,V1,frogFront.png,duckFront.png,Hcong,b,-20,landoltCR.png,,,,,5,70,470,56,,,b,0,0.801457793801,,,2020_Mar_04_1608,59.9491724364,duckFrog,001,13,
frog,quackR.wav,20,landoltCBottom.png,V1,duckFront.png,frogFront.png,LinCong,b,-20,landoltCL.png,,,,,5,71,471,18,,,b,0,1.75190526724,,,2020_Mar_04_1608,59.9491724364,duckFrog,001,13,
duck,wnR.wav,-20,landoltCL.png,V1,duckFront.png,frogFront.png,HcongWN,h,20,landoltCTop.png,,,,,5,72,472,37,,,h,0,1.08461288922,,,2020_Mar_04_1608,59.9491724364,duckFrog,001,13,
frog,wnR.wav,-20,landoltCR.png,V1,frogFront.png,duckFront.png,LcongWN,h,20,landoltCTop.png,,,,,5,73,473,29,,,h,0,0.967481337721,,,2020_Mar_04_1608,59.9491724364,duckFrog,001,13,
duck,wnR.wav,20,landoltCTop.png,V1,frogFront.png,duckFront.png,HinCongWN,h,-20,landoltCR.png,,,,,5,74,474,35,,,h,0,0.934533438151,,,2020_Mar_04_1608,59.9491724364,duckFrog,001,13,
duck,ribbitL.wav,-20,landoltCR.png,V1,duckFront.png,frogFront.png,HinCong,h,20,landoltCTop.png,,,,,5,75,475,38,,,h,0,1.13465256893,,,2020_Mar_04_1608,59.9491724364,duckFrog,001,13,
duck,wnR.wav,-20,landoltCL.png,V1,duckFront.png,frogFront.png,HcongWN,h,20,landoltCTop.png,,,,,5,76,476,53,,,h,0,0.851192498812,,,2020_Mar_04_1608,59.9491724364,duckFrog,001,13,
frog,ribbitR.wav,-20,landoltCL.png,V1,frogFront.png,duckFront.png,Lcong,b,20,landoltCBottom.png,,,,,5,77,477,20,,,b,0,1.25133472259,,,2020_Mar_04_1608,59.9491724364,duckFrog,001,13,
frog,quackL.wav,-20,landoltCL.png,V1,frogFront.png,duckFront.png,LinCong,h,20,landoltCTop.png,,,,,5,78,478,30,,,h,0,1.30168890746,,,2020_Mar_04_1608,59.9491724364,duckFrog,001,13,
duck,quackR.wav,-20,landoltCR.png,V1,duckFront.png,frogFront.png,Hcong,b,20,landoltCBottom.png,,,,,5,79,479,60,,,b,0,1.15131657803,,,2020_Mar_04_1608,59.9491724364,duckFrog,001,13,
duck,ribbitR.wav,20,landoltCTop.png,V1,frogFront.png,duckFront.png,HinCong,h,-20,landoltCL.png,,,,,6,0,480,50,,,h,0,0.849221526383,,,2020_Mar_04_1608,59.9491724364,duckFrog,001,13,
frog,wnL.wav,20,landoltCTop.png,V1,duckFront.png,frogFront.png,LcongWN,h,-20,landoltCL.png,,,,,6,1,481,25,,,h,0,1.41837692604,,,2020_Mar_04_1608,59.9491724364,duckFrog,001,13,
duck,wnR.wav,20,landoltCBottom.png,V1,frogFront.png,duckFront.png,HinCongWN,b,-20,landoltCL.png,,,,,6,2,482,75,,,b,0,1.11818283453,,,2020_Mar_04_1608,59.9491724364,duckFrog,001,13,
duck,wnR.wav,-20,landoltCL.png,V1,duckFront.png,frogFront.png,HcongWN,h,20,landoltCTop.png,,,,,6,3,483,5,,,h,0,1.08457146838,,,2020_Mar_04_1608,59.9491724364,duckFrog,001,13,
duck,wnL.wav,20,landoltCTop.png,V1,frogFront.png,duckFront.png,HcongWN,h,-20,landoltCR.png,,,,,6,4,484,65,,,h,0,1.36804436796,,,2020_Mar_04_1608,59.9491724364,duckFrog,001,13,
duck,ribbitL.wav,-20,landoltCR.png,V1,duckFront.png,frogFront.png,HinCong,b,20,landoltCBottom.png,,,,,6,5,485,62,,,b,0,1.16790067794,,,2020_Mar_04_1608,59.9491724364,duckFrog,001,13,
duck,wnL.wav,20,landoltCBottom.png,V1,frogFront.png,duckFront.png,HcongWN,b,-20,landoltCL.png,,,,,6,6,486,41,,,b,0,0.950929861312,,,2020_Mar_04_1608,59.9491724364,duckFrog,001,13,
frog,wnR.wav,-20,landoltCR.png,V1,frogFront.png,duckFront.png,LcongWN,b,20,landoltCBottom.png,,,,,6,7,487,21,,,b,0,1.50161412999,,,2020_Mar_04_1608,59.9491724364,duckFrog,001,13,
duck,quackR.wav,-20,landoltCR.png,V1,duckFront.png,frogFront.png,Hcong,b,20,landoltCBottom.png,,,,,6,8,488,60,,,b,0,0.817520284298,,,2020_Mar_04_1608,59.9491724364,duckFrog,001,13,
duck,wnL.wav,-20,landoltCL.png,V1,duckFront.png,frogFront.png,HinCongWN,b,20,landoltCBottom.png,,,,,6,9,489,79,,,b,0,1.2518486343,,,2020_Mar_04_1608,59.9491724364,duckFrog,001,13,
duck,quackR.wav,-20,landoltCR.png,V1,duckFront.png,frogFront.png,Hcong,h,20,landoltCTop.png,,,,,6,10,490,68,,,h,0,1.3184390573,,,2020_Mar_04_1608,59.9491724364,duckFrog,001,13,
duck,wnL.wav,-20,landoltCL.png,V1,duckFront.png,frogFront.png,HinCongWN,b,20,landoltCBottom.png,,,,,6,11,491,15,,,b,0,1.20106411251,,,2020_Mar_04_1608,59.9491724364,duckFrog,001,13,
duck,quackR.wav,-20,landoltCR.png,V1,duckFront.png,frogFront.png,Hcong,b,20,landoltCBottom.png,,,,,6,12,492,44,,,b,0,1.21834540222,,,2020_Mar_04_1608,59.9491724364,duckFrog,001,13,
duck,wnL.wav,20,landoltCBottom.png,V1,frogFront.png,duckFront.png,HcongWN,b,-20,landoltCL.png,,,,,6,13,493,57,,,b,0,0.817636116029,,,2020_Mar_04_1608,59.9491724364,duckFrog,001,13,
duck,wnR.wav,20,landoltCBottom.png,V1,frogFront.png,duckFront.png,HinCongWN,b,-20,landoltCL.png,,,,,6,14,494,59,,,b,0,1.45193220911,,,2020_Mar_04_1608,59.9491724364,duckFrog,001,13,
duck,wnR.wav,-20,landoltCL.png,V1,duckFront.png,frogFront.png,HcongWN,h,20,landoltCTop.png,,,,,6,15,495,53,,,h,0,1.25151580133,,,2020_Mar_04_1608,59.9491724364,duckFrog,001,13,
duck,wnR.wav,-20,landoltCL.png,V1,duckFront.png,frogFront.png,HcongWN,h,20,landoltCTop.png,,,,,6,16,496,37,,,h,0,0.934173480025,,,2020_Mar_04_1608,59.9491724364,duckFrog,001,13,
duck,quackR.wav,-20,landoltCR.png,V1,duckFront.png,frogFront.png,Hcong,b,20,landoltCBottom.png,,,,,6,17,497,76,,,b,0,0.900775082991,,,2020_Mar_04_1608,59.9491724364,duckFrog,001,13,
duck,ribbitL.wav,-20,landoltCR.png,V1,duckFront.png,frogFront.png,HinCong,b,20,landoltCBottom.png,,,,,6,18,498,78,,,b,0,0.784519967216,,,2020_Mar_04_1608,59.9491724364,duckFrog,001,13,
frog,ribbitL.wav,20,landoltCBottom.png,V1,duckFront.png,frogFront.png,Lcong,b,-20,landoltCL.png,,,,,6,19,499,16,,,b,0,1.18465009468,,,2020_Mar_04_1608,59.9491724364,duckFrog,001,13,
duck,quackR.wav,-20,landoltCR.png,V1,duckFront.png,frogFront.png,Hcong,h,20,landoltCTop.png,,,,,6,20,500,4,,,h,0,1.03439433011,,,2020_Mar_04_1608,59.9491724364,duckFrog,001,13,
duck,quackL.wav,20,landoltCTop.png,V1,frogFront.png,duckFront.png,Hcong,h,-20,landoltCL.png,,,,,6,21,501,32,,,h,0,1.15079130308,,,2020_Mar_04_1608,59.9491724364,duckFrog,001,13,
duck,wnR.wav,-20,landoltCL.png,V1,duckFront.png,frogFront.png,HcongWN,b,20,landoltCBottom.png,,,,,6,22,502,77,,,b,0,0.83435950728,,,2020_Mar_04_1608,59.9491724364,duckFrog,001,13,
duck,quackL.wav,20,landoltCTop.png,V1,frogFront.png,duckFront.png,Hcong,h,-20,landoltCL.png,,,,,6,23,503,64,,,h,0,0.784279506421,,,2020_Mar_04_1608,59.9491724364,duckFrog,001,13,
frog,quackR.wav,20,landoltCBottom.png,V1,duckFront.png,frogFront.png,LinCong,b,-20,landoltCL.png,,,,,6,24,504,18,,,b,0,1.40224295709,,,2020_Mar_04_1608,59.9491724364,duckFrog,001,13,
frog,quackL.wav,-20,landoltCL.png,V1,frogFront.png,duckFront.png,LinCong,h,20,landoltCTop.png,,,,,6,25,505,30,,,h,0,0.967756621394,,,2020_Mar_04_1608,59.9491724364,duckFrog,001,13,
duck,wnR.wav,20,landoltCTop.png,V1,frogFront.png,duckFront.png,HinCongWN,h,-20,landoltCR.png,,,,,6,26,506,67,,,h,0,1.28478883617,,,2020_Mar_04_1608,59.9491724364,duckFrog,001,13,
duck,quackL.wav,20,landoltCBottom.png,V1,frogFront.png,duckFront.png,Hcong,b,-20,landoltCR.png,,,,,6,27,507,72,,,b,0,1.2516429963,,,2020_Mar_04_1608,59.9491724364,duckFrog,001,13,
duck,wnL.wav,20,landoltCBottom.png,V1,frogFront.png,duckFront.png,HcongWN,b,-20,landoltCL.png,,,,,6,28,508,9,,,b,0,0.918140314025,,,2020_Mar_04_1608,59.9491724364,duckFrog,001,13,
duck,ribbitL.wav,-20,landoltCR.png,V1,duckFront.png,frogFront.png,HinCong,h,20,landoltCTop.png,,,,,6,29,509,38,,,h,0,0.767106350773,,,2020_Mar_04_1608,59.9491724364,duckFrog,001,13,
frog,ribbitL.wav,20,landoltCTop.png,V1,duckFront.png,frogFront.png,Lcong,h,-20,landoltCR.png,,,,,6,30,510,24,,,h,0,1.26787483573,,,2020_Mar_04_1608,59.9491724364,duckFrog,001,13,
frog,quackL.wav,-20,landoltCL.png,V1,frogFront.png,duckFront.png,LinCong,b,20,landoltCBottom.png,,,,,6,31,511,22,,,b,0,1.18088373021,,,2020_Mar_04_1608,59.9491724364,duckFrog,001,13,
frog,wnL.wav,-20,landoltCR.png,V1,frogFront.png,duckFront.png,LinCongWN,b,20,landoltCBottom.png,,,,,6,32,512,23,,,b,0,1.18494407271,,,2020_Mar_04_1608,59.9491724364,duckFrog,001,13,
duck,quackL.wav,20,landoltCTop.png,V1,frogFront.png,duckFront.png,Hcong,h,-20,landoltCL.png,,,,,6,33,513,48,,,h,0,0.934360790212,,,2020_Mar_04_1608,59.9491724364,duckFrog,001,13,
duck,wnR.wav,20,landoltCTop.png,V1,frogFront.png,duckFront.png,HinCongWN,h,-20,landoltCR.png,,,,,6,34,514,35,,,h,0,1.15152661473,,,2020_Mar_04_1608,59.9491724364,duckFrog,001,13,
duck,wnR.wav,-20,landoltCL.png,V1,duckFront.png,frogFront.png,HcongWN,h,20,landoltCTop.png,,,,,6,35,515,69,,,h,0,0.701608631673,,,2020_Mar_04_1608,59.9491724364,duckFrog,001,13,
duck,wnL.wav,-20,landoltCL.png,V1,duckFront.png,frogFront.png,HinCongWN,h,20,landoltCTop.png,,,,,6,36,516,55,,,h,0,0.701166198385,,,2020_Mar_04_1608,59.9491724364,duckFrog,001,13,
frog,wnR.wav,20,landoltCBottom.png,V1,duckFront.png,frogFront.png,LinCongWN,b,-20,landoltCR.png,,,,,6,37,517,19,,,b,0,1.15115126123,,,2020_Mar_04_1608,59.9491724364,duckFrog,001,13,
duck,wnL.wav,-20,landoltCL.png,V1,duckFront.png,frogFront.png,HinCongWN,b,20,landoltCBottom.png,,,,,6,38,518,47,,,b,0,0.750939391786,,,2020_Mar_04_1608,59.9491724364,duckFrog,001,13,
duck,wnR.wav,20,landoltCTop.png,V1,frogFront.png,duckFront.png,HinCongWN,h,-20,landoltCR.png,,,,,6,39,519,3,,,h,0,0.884286287677,,,2020_Mar_04_1608,59.9491724364,duckFrog,001,13,
duck,quackL.wav,20,landoltCBottom.png,V1,frogFront.png,duckFront.png,Hcong,b,-20,landoltCR.png,,,,,6,40,520,8,,,b,0,0.780517174047,,,2020_Mar_04_1608,59.9491724364,duckFrog,001,13,
duck,ribbitR.wav,20,landoltCTop.png,V1,frogFront.png,duckFront.png,HinCong,h,-20,landoltCL.png,,,,,6,41,521,2,,,h,0,0.801285512396,,,2020_Mar_04_1608,59.9491724364,duckFrog,001,13,
duck,wnR.wav,-20,landoltCL.png,V1,duckFront.png,frogFront.png,HcongWN,b,20,landoltCBottom.png,,,,,6,42,522,61,,,b,0,0.784243583883,,,2020_Mar_04_1608,59.9491724364,duckFrog,001,13,
duck,wnL.wav,-20,landoltCL.png,V1,duckFront.png,frogFront.png,HinCongWN,h,20,landoltCTop.png,,,,,6,43,523,39,,,h,0,1.10144588075,,,2020_Mar_04_1608,59.9491724364,duckFrog,001,13,
duck,wnR.wav,20,landoltCBottom.png,V1,frogFront.png,duckFront.png,HinCongWN,b,-20,landoltCL.png,,,,,6,44,524,43,,,b,0,0.884402852535,,,2020_Mar_04_1608,59.9491724364,duckFrog,001,13,
duck,ribbitL.wav,-20,landoltCR.png,V1,duckFront.png,frogFront.png,HinCong,h,20,landoltCTop.png,,,,,6,45,525,70,,,h,0,0.950982278853,,,2020_Mar_04_1608,59.9491724364,duckFrog,001,13,
duck,quackL.wav,20,landoltCBottom.png,V1,frogFront.png,duckFront.png,Hcong,b,-20,landoltCR.png,,,,,6,46,526,56,,,b,0,0.850871029048,,,2020_Mar_04_1608,59.9491724364,duckFrog,001,13,
duck,wnR.wav,-20,landoltCL.png,V1,duckFront.png,frogFront.png,HcongWN,b,20,landoltCBottom.png,,,,,6,47,527,45,,,b,0,1.08439515484,,,2020_Mar_04_1608,59.9491724364,duckFrog,001,13,
duck,wnL.wav,20,landoltCTop.png,V1,frogFront.png,duckFront.png,HcongWN,h,-20,landoltCR.png,,,,,6,48,528,33,,,h,0,0.817548142571,,,2020_Mar_04_1608,59.9491724364,duckFrog,001,13,
duck,quackR.wav,-20,landoltCR.png,V1,duckFront.png,frogFront.png,Hcong,h,20,landoltCTop.png,,,,,6,49,529,52,,,h,0,1.15114246387,,,2020_Mar_04_1608,59.9491724364,duckFrog,001,13,
duck,ribbitR.wav,20,landoltCTop.png,V1,frogFront.png,duckFront.png,HinCong,h,-20,landoltCL.png,,,,,6,50,530,66,,,h,0,0.83422278185,,,2020_Mar_04_1608,59.9491724364,duckFrog,001,13,
frog,wnL.wav,20,landoltCBottom.png,V1,duckFront.png,frogFront.png,LcongWN,b,-20,landoltCR.png,,,,,6,51,531,17,,,b,0,0.984574584116,,,2020_Mar_04_1608,59.9491724364,duckFrog,001,13,
frog,quackR.wav,20,landoltCTop.png,V1,duckFront.png,frogFront.png,LinCong,h,-20,landoltCR.png,,,,,6,52,532,26,,,h,0,1.26813509059,,,2020_Mar_04_1608,59.9491724364,duckFrog,001,13,
frog,ribbitR.wav,-20,landoltCL.png,V1,frogFront.png,duckFront.png,Lcong,h,20,landoltCTop.png,,,,,6,53,533,28,,,h,0,1.38465925856,,,2020_Mar_04_1608,59.9491724364,duckFrog,001,13,
duck,ribbitL.wav,-20,landoltCR.png,V1,duckFront.png,frogFront.png,HinCong,h,20,landoltCTop.png,,,,,6,54,534,6,,,h,0,1.18473000391,,,2020_Mar_04_1608,59.9491724364,duckFrog,001,13,
duck,wnL.wav,20,landoltCTop.png,V1,frogFront.png,duckFront.png,HcongWN,h,-20,landoltCR.png,,,,,6,55,535,49,,,h,0,0.817547776009,,,2020_Mar_04_1608,59.9491724364,duckFrog,001,13,
duck,wnR.wav,20,landoltCBottom.png,V1,frogFront.png,duckFront.png,HinCongWN,b,-20,landoltCL.png,,,,,6,56,536,11,,,b,0,1.11798122866,,,2020_Mar_04_1608,59.9491724364,duckFrog,001,13,
duck,ribbitR.wav,20,landoltCBottom.png,V1,frogFront.png,duckFront.png,HinCong,b,-20,landoltCR.png,,,,,6,57,537,10,,,b,0,0.751040194707,,,2020_Mar_04_1608,59.9491724364,duckFrog,001,13,
frog,wnL.wav,-20,landoltCR.png,V1,frogFront.png,duckFront.png,LinCongWN,h,20,landoltCTop.png,,,,,6,58,538,31,,,h,0,1.11777449099,,,2020_Mar_04_1608,59.9491724364,duckFrog,001,13,
duck,ribbitL.wav,-20,landoltCR.png,V1,duckFront.png,frogFront.png,HinCong,b,20,landoltCBottom.png,,,,,6,59,539,46,,,b,0,1.10132271785,,,2020_Mar_04_1608,59.9491724364,duckFrog,001,13,
duck,quackR.wav,-20,landoltCR.png,V1,duckFront.png,frogFront.png,Hcong,b,20,landoltCBottom.png,,,,,6,60,540,12,,,b,0,1.05122109019,,,2020_Mar_04_1608,59.9491724364,duckFrog,001,13,
duck,quackL.wav,20,landoltCBottom.png,V1,frogFront.png,duckFront.png,Hcong,b,-20,landoltCR.png,,,,,6,61,541,40,,,b,0,0.750817695138,,,2020_Mar_04_1608,59.9491724364,duckFrog,001,13,
duck,wnR.wav,-20,landoltCL.png,V1,duckFront.png,frogFront.png,HcongWN,b,20,landoltCBottom.png,,,,,6,62,542,13,,,b,0,0.684098244354,,,2020_Mar_04_1608,59.9491724364,duckFrog,001,13,
duck,wnL.wav,20,landoltCBottom.png,V1,frogFront.png,duckFront.png,HcongWN,b,-20,landoltCL.png,,,,,6,63,543,73,,,b,0,0.717467683484,,,2020_Mar_04_1608,59.9491724364,duckFrog,001,13,
duck,ribbitL.wav,-20,landoltCR.png,V1,duckFront.png,frogFront.png,HinCong,b,20,landoltCBottom.png,,,,,6,64,544,14,,,b,0,0.734136457846,,,2020_Mar_04_1608,59.9491724364,duckFrog,001,13,
frog,wnR.wav,-20,landoltCR.png,V1,frogFront.png,duckFront.png,LcongWN,h,20,landoltCTop.png,,,,,6,65,545,29,,,h,0,0.784080832964,,,2020_Mar_04_1608,59.9491724364,duckFrog,001,13,
duck,quackL.wav,20,landoltCTop.png,V1,frogFront.png,duckFront.png,Hcong,h,-20,landoltCL.png,,,,,6,66,546,0,,,h,0,1.26791625656,,,2020_Mar_04_1608,59.9491724364,duckFrog,001,13,
