targetAnim,audioPos,distPos,visualL,expLab,picR,picL,condLabel,corrAns,targetPos,visualR,pracTrials1a.thisRepN,pracTrials1a.thisTrialN,pracTrials1a.thisN,pracTrials1a.thisIndex,exp1a.thisRepN,exp1a.thisTrialN,exp1a.thisN,exp1a.thisIndex,pressToCont.keys,pressToCont.rt,key_resp_2.keys,key_resp_2.corr,key_resp_2.rt,spaceToBegin.keys,spaceToBegin.rt,date,frameRate,expName,session,participant,
,,,,,,,,,,,,,,,,,,,space,6.12179536054,,,,,,2020_Mar_11_1110,59.9503357829,duckFrog,001,16,
duck,quackL.wav,20,landoltCTop.png,prac,frogFront.png,duckFront.png,Hcong,h,-20,landoltCL.png,0,0,0,0,,,,,,,h,0,7.00580848921,,,2020_Mar_11_1110,59.9503357829,duckFrog,001,16,
frog,wnR.wav,20,landoltCBottom.png,prac,duckFront.png,frogFront.png,LinCongWN,b,-20,landoltCR.png,0,1,1,2,,,,,,,h,0,3.01949359182,,,2020_Mar_11_1110,59.9503357829,duckFrog,001,16,
duck,ribbitL.wav,-20,landoltCR.png,prac,duckFront.png,frogFront.png,HinCong,h,20,landoltCTop.png,0,2,2,1,,,,,,,h,0,6.48871988904,,,2020_Mar_11_1110,59.9503357829,duckFrog,001,16,
duck,wnL.wav,20,landoltCBottom.png,prac,frogFront.png,duckFront.png,HcongWN,b,-20,landoltCL.png,0,3,3,4,,,,,,,b,0,3.8364011853,,,2020_Mar_11_1110,59.9503357829,duckFrog,001,16,
frog,ribbitR.wav,-20,landoltCL.png,prac,frogFront.png,duckFront.png,Lcong,b,20,landoltCBottom.png,0,4,4,3,,,,,,,h,0,4.98730497244,,,2020_Mar_11_1110,59.9503357829,duckFrog,001,16,
,,,,,,,,,,,,,,,,,,,,,,,,space,33.6437258346,2020_Mar_11_1110,59.9503357829,duckFrog,001,16,
duck,wnL.wav,30,landoltCTop.png,V1,frogFront.png,duckFront.png,HcongWN,h,-30,landoltCR.png,,,,,0,0,0,65,,,h,0,2.401936383,,,2020_Mar_11_1110,59.9503357829,duckFrog,001,16,
duck,wnR.wav,30,landoltCBottom.png,V1,frogFront.png,duckFront.png,HinCongWN,b,-30,landoltCL.png,,,,,0,1,1,43,,,b,0,1.51831363936,,,2020_Mar_11_1110,59.9503357829,duckFrog,001,16,
duck,quackR.wav,-30,landoltCR.png,V1,duckFront.png,frogFront.png,Hcong,b,30,landoltCBottom.png,,,,,0,2,2,44,,,b,0,1.18453811404,,,2020_Mar_11_1110,59.9503357829,duckFrog,001,16,
frog,ribbitL.wav,30,landoltCBottom.png,V1,duckFront.png,frogFront.png,Lcong,b,-30,landoltCL.png,,,,,0,3,3,16,,,b,0,1.08422895843,,,2020_Mar_11_1110,59.9503357829,duckFrog,001,16,
duck,ribbitL.wav,-30,landoltCR.png,V1,duckFront.png,frogFront.png,HinCong,b,30,landoltCBottom.png,,,,,0,4,4,62,,,b,0,1.7847083439,,,2020_Mar_11_1110,59.9503357829,duckFrog,001,16,
duck,quackL.wav,30,landoltCTop.png,V1,frogFront.png,duckFront.png,Hcong,h,-30,landoltCL.png,,,,,0,5,5,0,,,h,0,1.23426766703,,,2020_Mar_11_1110,59.9503357829,duckFrog,001,16,
frog,wnL.wav,30,landoltCTop.png,V1,duckFront.png,frogFront.png,LcongWN,h,-30,landoltCL.png,,,,,0,6,6,25,,,h,0,2.48552972864,,,2020_Mar_11_1110,59.9503357829,duckFrog,001,16,
duck,wnR.wav,-30,landoltCL.png,V1,duckFront.png,frogFront.png,HcongWN,h,30,landoltCTop.png,,,,,0,7,7,69,,,h,0,2.25193176436,,,2020_Mar_11_1110,59.9503357829,duckFrog,001,16,
duck,ribbitR.wav,30,landoltCBottom.png,V1,frogFront.png,duckFront.png,HinCong,b,-30,landoltCR.png,,,,,0,8,8,58,,,b,0,2.13521983992,,,2020_Mar_11_1110,59.9503357829,duckFrog,001,16,
duck,wnL.wav,-30,landoltCL.png,V1,duckFront.png,frogFront.png,HinCongWN,b,30,landoltCBottom.png,,,,,0,9,9,47,,,b,0,1.58475130458,,,2020_Mar_11_1110,59.9503357829,duckFrog,001,16,
duck,quackL.wav,30,landoltCTop.png,V1,frogFront.png,duckFront.png,Hcong,h,-30,landoltCL.png,,,,,0,10,10,32,,,h,0,1.23431788557,,,2020_Mar_11_1110,59.9503357829,duckFrog,001,16,
duck,quackR.wav,-30,landoltCR.png,V1,duckFront.png,frogFront.png,Hcong,b,30,landoltCBottom.png,,,,,0,11,11,60,,,b,0,1.33440637284,,,2020_Mar_11_1110,59.9503357829,duckFrog,001,16,
duck,ribbitL.wav,-30,landoltCR.png,V1,duckFront.png,frogFront.png,HinCong,b,30,landoltCBottom.png,,,,,0,12,12,14,,,b,0,1.33465123406,,,2020_Mar_11_1110,59.9503357829,duckFrog,001,16,
duck,wnR.wav,-30,landoltCL.png,V1,duckFront.png,frogFront.png,HcongWN,b,30,landoltCBottom.png,,,,,0,13,13,45,,,b,0,1.10139783496,,,2020_Mar_11_1110,59.9503357829,duckFrog,001,16,
frog,wnL.wav,-30,landoltCR.png,V1,frogFront.png,duckFront.png,LinCongWN,h,30,landoltCTop.png,,,,,0,14,14,31,,,h,0,1.51244943323,,,2020_Mar_11_1110,59.9503357829,duckFrog,001,16,
duck,quackR.wav,-30,landoltCR.png,V1,duckFront.png,frogFront.png,Hcong,h,30,landoltCTop.png,,,,,0,15,15,4,,,h,0,1.46799575965,,,2020_Mar_11_1110,59.9503357829,duckFrog,001,16,
duck,wnL.wav,-30,landoltCL.png,V1,duckFront.png,frogFront.png,HinCongWN,b,30,landoltCBottom.png,,,,,0,16,16,79,,,b,0,1.25122100704,,,2020_Mar_11_1110,59.9503357829,duckFrog,001,16,
duck,wnR.wav,-30,landoltCL.png,V1,duckFront.png,frogFront.png,HcongWN,h,30,landoltCTop.png,,,,,0,17,17,37,,,h,0,0.98453892047,,,2020_Mar_11_1110,59.9503357829,duckFrog,001,16,
duck,wnR.wav,30,landoltCTop.png,V1,frogFront.png,duckFront.png,HinCongWN,h,-30,landoltCR.png,,,,,0,18,18,67,,,h,0,0.783736596781,,,2020_Mar_11_1110,59.9503357829,duckFrog,001,16,
duck,ribbitL.wav,-30,landoltCR.png,V1,duckFront.png,frogFront.png,HinCong,h,30,landoltCTop.png,,,,,0,19,19,54,,,h,0,1.28437477548,,,2020_Mar_11_1110,59.9503357829,duckFrog,001,16,
duck,wnL.wav,30,landoltCBottom.png,V1,frogFront.png,duckFront.png,HcongWN,b,-30,landoltCL.png,,,,,0,20,20,57,,,b,0,0.817513881578,,,2020_Mar_11_1110,59.9503357829,duckFrog,001,16,
duck,quackR.wav,-30,landoltCR.png,V1,duckFront.png,frogFront.png,Hcong,h,30,landoltCTop.png,,,,,0,21,21,68,,,h,0,1.26763550576,,,2020_Mar_11_1110,59.9503357829,duckFrog,001,16,
frog,quackL.wav,-30,landoltCL.png,V1,frogFront.png,duckFront.png,LinCong,h,30,landoltCTop.png,,,,,0,22,22,30,,,h,0,1.35130656184,,,2020_Mar_11_1110,59.9503357829,duckFrog,001,16,
duck,quackR.wav,-30,landoltCR.png,V1,duckFront.png,frogFront.png,Hcong,h,30,landoltCTop.png,,,,,0,23,23,36,,,h,0,1.1678362333,,,2020_Mar_11_1110,59.9503357829,duckFrog,001,16,
duck,wnL.wav,-30,landoltCL.png,V1,duckFront.png,frogFront.png,HinCongWN,h,30,landoltCTop.png,,,,,0,24,24,39,,,h,0,1.3513531148,,,2020_Mar_11_1110,59.9503357829,duckFrog,001,16,
duck,wnR.wav,30,landoltCTop.png,V1,frogFront.png,duckFront.png,HinCongWN,h,-30,landoltCR.png,,,,,0,25,25,51,,,h,0,0.83394377576,,,2020_Mar_11_1110,59.9503357829,duckFrog,001,16,
frog,ribbitR.wav,-30,landoltCL.png,V1,frogFront.png,duckFront.png,Lcong,h,30,landoltCTop.png,,,,,0,26,26,28,,,h,0,0.917382800186,,,2020_Mar_11_1110,59.9503357829,duckFrog,001,16,
duck,wnL.wav,30,landoltCTop.png,V1,frogFront.png,duckFront.png,HcongWN,h,-30,landoltCR.png,,,,,0,27,27,1,,,h,0,1.01724915288,,,2020_Mar_11_1110,59.9503357829,duckFrog,001,16,
duck,wnL.wav,30,landoltCTop.png,V1,frogFront.png,duckFront.png,HcongWN,h,-30,landoltCR.png,,,,,0,28,28,49,,,h,0,0.634100369638,,,2020_Mar_11_1110,59.9503357829,duckFrog,001,16,
duck,ribbitR.wav,30,landoltCBottom.png,V1,frogFront.png,duckFront.png,HinCong,b,-30,landoltCR.png,,,,,0,29,29,10,,,b,0,1.65189679466,,,2020_Mar_11_1110,59.9503357829,duckFrog,001,16,
duck,wnL.wav,30,landoltCBottom.png,V1,frogFront.png,duckFront.png,HcongWN,b,-30,landoltCL.png,,,,,0,30,30,9,,,b,0,1.46825235074,,,2020_Mar_11_1110,59.9503357829,duckFrog,001,16,
duck,quackR.wav,-30,landoltCR.png,V1,duckFront.png,frogFront.png,Hcong,b,30,landoltCBottom.png,,,,,0,31,31,76,,,b,0,1.06752707769,,,2020_Mar_11_1110,59.9503357829,duckFrog,001,16,
duck,wnL.wav,-30,landoltCL.png,V1,duckFront.png,frogFront.png,HinCongWN,h,30,landoltCTop.png,,,,,0,32,32,55,,,h,0,1.01768169215,,,2020_Mar_11_1110,59.9503357829,duckFrog,001,16,
frog,wnR.wav,-30,landoltCR.png,V1,frogFront.png,duckFront.png,LcongWN,h,30,landoltCTop.png,,,,,0,33,33,29,,,h,0,0.817885205544,,,2020_Mar_11_1110,59.9503357829,duckFrog,001,16,
frog,wnR.wav,30,landoltCBottom.png,V1,duckFront.png,frogFront.png,LinCongWN,b,-30,landoltCR.png,,,,,0,34,34,19,,,b,0,1.40106433985,,,2020_Mar_11_1110,59.9503357829,duckFrog,001,16,
frog,quackR.wav,30,landoltCBottom.png,V1,duckFront.png,frogFront.png,LinCong,b,-30,landoltCL.png,,,,,0,35,35,18,,,b,0,0.867558675052,,,2020_Mar_11_1110,59.9503357829,duckFrog,001,16,
frog,ribbitL.wav,30,landoltCTop.png,V1,duckFront.png,frogFront.png,Lcong,h,-30,landoltCR.png,,,,,0,36,36,24,,,h,0,0.80090474019,,,2020_Mar_11_1110,59.9503357829,duckFrog,001,16,
duck,ribbitL.wav,-30,landoltCR.png,V1,duckFront.png,frogFront.png,HinCong,h,30,landoltCTop.png,,,,,0,37,37,70,,,h,0,1.35103824087,,,2020_Mar_11_1110,59.9503357829,duckFrog,001,16,
duck,ribbitL.wav,-30,landoltCR.png,V1,duckFront.png,frogFront.png,HinCong,h,30,landoltCTop.png,,,,,0,38,38,38,,,h,0,0.817659038825,,,2020_Mar_11_1110,59.9503357829,duckFrog,001,16,
duck,quackL.wav,30,landoltCBottom.png,V1,frogFront.png,duckFront.png,Hcong,b,-30,landoltCR.png,,,,,0,39,39,40,,,b,0,1.31769752749,,,2020_Mar_11_1110,59.9503357829,duckFrog,001,16,
duck,ribbitR.wav,30,landoltCTop.png,V1,frogFront.png,duckFront.png,HinCong,h,-30,landoltCL.png,,,,,0,40,40,50,,,h,0,0.951174380772,,,2020_Mar_11_1110,59.9503357829,duckFrog,001,16,
duck,wnL.wav,-30,landoltCL.png,V1,duckFront.png,frogFront.png,HinCongWN,b,30,landoltCBottom.png,,,,,0,41,41,15,,,b,0,1.01742510106,,,2020_Mar_11_1110,59.9503357829,duckFrog,001,16,
duck,wnL.wav,-30,landoltCL.png,V1,duckFront.png,frogFront.png,HinCongWN,b,30,landoltCBottom.png,,,,,0,42,42,63,,,b,0,0.73415183448,,,2020_Mar_11_1110,59.9503357829,duckFrog,001,16,
frog,wnR.wav,-30,landoltCR.png,V1,frogFront.png,duckFront.png,LcongWN,b,30,landoltCBottom.png,,,,,0,43,43,21,,,b,0,1.34788840194,,,2020_Mar_11_1110,59.9503357829,duckFrog,001,16,
duck,ribbitR.wav,30,landoltCBottom.png,V1,frogFront.png,duckFront.png,HinCong,b,-30,landoltCR.png,,,,,0,44,44,42,,,b,0,1.23424604007,,,2020_Mar_11_1110,59.9503357829,duckFrog,001,16,
duck,wnR.wav,30,landoltCBottom.png,V1,frogFront.png,duckFront.png,HinCongWN,b,-30,landoltCL.png,,,,,0,45,45,11,,,b,0,1.81828988635,,,2020_Mar_11_1110,59.9503357829,duckFrog,001,16,
frog,ribbitR.wav,-30,landoltCL.png,V1,frogFront.png,duckFront.png,Lcong,b,30,landoltCBottom.png,,,,,0,46,46,20,,,b,0,1.30101580748,,,2020_Mar_11_1110,59.9503357829,duckFrog,001,16,
duck,ribbitL.wav,-30,landoltCR.png,V1,duckFront.png,frogFront.png,HinCong,b,30,landoltCBottom.png,,,,,0,47,47,78,,,b,0,0.917681545528,,,2020_Mar_11_1110,59.9503357829,duckFrog,001,16,
duck,ribbitR.wav,30,landoltCTop.png,V1,frogFront.png,duckFront.png,HinCong,h,-30,landoltCL.png,,,,,0,48,48,2,,,h,0,1.43464294983,,,2020_Mar_11_1110,59.9503357829,duckFrog,001,16,
frog,quackR.wav,30,landoltCTop.png,V1,duckFront.png,frogFront.png,LinCong,h,-30,landoltCR.png,,,,,0,49,49,26,,,h,0,1.71849208013,,,2020_Mar_11_1110,59.9503357829,duckFrog,001,16,
duck,ribbitL.wav,-30,landoltCR.png,V1,duckFront.png,frogFront.png,HinCong,b,30,landoltCBottom.png,,,,,0,50,50,46,,,b,0,1.3343011705,,,2020_Mar_11_1110,59.9503357829,duckFrog,001,16,
duck,ribbitR.wav,30,landoltCBottom.png,V1,frogFront.png,duckFront.png,HinCong,b,-30,landoltCR.png,,,,,0,51,51,74,,,b,0,1.81795228579,,,2020_Mar_11_1110,59.9503357829,duckFrog,001,16,
duck,quackR.wav,-30,landoltCR.png,V1,duckFront.png,frogFront.png,Hcong,b,30,landoltCBottom.png,,,,,0,52,52,12,,,b,0,1.08399692677,,,2020_Mar_11_1110,59.9503357829,duckFrog,001,16,
duck,wnR.wav,30,landoltCTop.png,V1,frogFront.png,duckFront.png,HinCongWN,h,-30,landoltCR.png,,,,,0,53,53,3,,,h,0,1.63476530712,,,2020_Mar_11_1110,59.9503357829,duckFrog,001,16,
duck,wnR.wav,-30,landoltCL.png,V1,duckFront.png,frogFront.png,HcongWN,b,30,landoltCBottom.png,,,,,0,54,54,13,,,b,0,1.03412368277,,,2020_Mar_11_1110,59.9503357829,duckFrog,001,16,
duck,quackL.wav,30,landoltCBottom.png,V1,frogFront.png,duckFront.png,Hcong,b,-30,landoltCR.png,,,,,0,55,55,72,,,b,0,0.800506290881,,,2020_Mar_11_1110,59.9503357829,duckFrog,001,16,
duck,quackL.wav,30,landoltCBottom.png,V1,frogFront.png,duckFront.png,Hcong,b,-30,landoltCR.png,,,,,0,56,56,8,,,b,0,0.65080994811,,,2020_Mar_11_1110,59.9503357829,duckFrog,001,16,
duck,wnL.wav,-30,landoltCL.png,V1,duckFront.png,frogFront.png,HinCongWN,h,30,landoltCTop.png,,,,,0,57,57,71,,,h,0,1.26788329944,,,2020_Mar_11_1110,59.9503357829,duckFrog,001,16,
duck,wnR.wav,30,landoltCBottom.png,V1,frogFront.png,duckFront.png,HinCongWN,b,-30,landoltCL.png,,,,,0,58,58,59,,,b,0,1.28446934763,,,2020_Mar_11_1110,59.9503357829,duckFrog,001,16,
duck,wnR.wav,30,landoltCBottom.png,V1,frogFront.png,duckFront.png,HinCongWN,b,-30,landoltCL.png,,,,,0,59,59,75,,,b,0,1.33461897689,,,2020_Mar_11_1110,59.9503357829,duckFrog,001,16,
duck,wnL.wav,-30,landoltCL.png,V1,duckFront.png,frogFront.png,HinCongWN,h,30,landoltCTop.png,,,,,0,60,60,7,,,h,0,1.28423108447,,,2020_Mar_11_1110,59.9503357829,duckFrog,001,16,
duck,ribbitR.wav,30,landoltCTop.png,V1,frogFront.png,duckFront.png,HinCong,h,-30,landoltCL.png,,,,,0,61,61,34,,,h,0,1.23426363488,,,2020_Mar_11_1110,59.9503357829,duckFrog,001,16,
duck,wnL.wav,30,landoltCBottom.png,V1,frogFront.png,duckFront.png,HcongWN,b,-30,landoltCL.png,,,,,0,62,62,41,,,b,0,0.867700166711,,,2020_Mar_11_1110,59.9503357829,duckFrog,001,16,
duck,quackL.wav,30,landoltCBottom.png,V1,frogFront.png,duckFront.png,Hcong,b,-30,landoltCR.png,,,,,0,63,63,56,,,b,0,0.934686936875,,,2020_Mar_11_1110,59.9503357829,duckFrog,001,16,
frog,wnL.wav,-30,landoltCR.png,V1,frogFront.png,duckFront.png,LinCongWN,b,30,landoltCBottom.png,,,,,0,64,64,23,,,b,0,1.4511270947,,,2020_Mar_11_1110,59.9503357829,duckFrog,001,16,
duck,wnR.wav,-30,landoltCL.png,V1,duckFront.png,frogFront.png,HcongWN,b,30,landoltCBottom.png,,,,,0,65,65,77,,,b,0,0.867591665335,,,2020_Mar_11_1110,59.9503357829,duckFrog,001,16,
duck,wnR.wav,-30,landoltCL.png,V1,duckFront.png,frogFront.png,HcongWN,h,30,landoltCTop.png,,,,,0,66,66,5,,,h,0,0.800998945778,,,2020_Mar_11_1110,59.9503357829,duckFrog,001,16,
duck,wnR.wav,-30,landoltCL.png,V1,duckFront.png,frogFront.png,HcongWN,b,30,landoltCBottom.png,,,,,0,67,67,61,,,b,0,0.967796718273,,,2020_Mar_11_1110,59.9503357829,duckFrog,001,16,
duck,wnR.wav,-30,landoltCL.png,V1,duckFront.png,frogFront.png,HcongWN,h,30,landoltCTop.png,,,,,0,68,68,53,,,h,0,0.767851408832,,,2020_Mar_11_1110,59.9503357829,duckFrog,001,16,
duck,ribbitR.wav,30,landoltCTop.png,V1,frogFront.png,duckFront.png,HinCong,h,-30,landoltCL.png,,,,,0,69,69,66,,,h,0,1.20109410442,,,2020_Mar_11_1110,59.9503357829,duckFrog,001,16,
duck,quackL.wav,30,landoltCTop.png,V1,frogFront.png,duckFront.png,Hcong,h,-30,landoltCL.png,,,,,0,70,70,48,,,h,0,0.78442646026,,,2020_Mar_11_1110,59.9503357829,duckFrog,001,16,
duck,wnL.wav,30,landoltCTop.png,V1,frogFront.png,duckFront.png,HcongWN,h,-30,landoltCR.png,,,,,0,71,71,33,,,h,0,0.600904446944,,,2020_Mar_11_1110,59.9503357829,duckFrog,001,16,
duck,wnL.wav,30,landoltCBottom.png,V1,frogFront.png,duckFront.png,HcongWN,b,-30,landoltCL.png,,,,,0,72,72,73,,,b,0,0.867720693998,,,2020_Mar_11_1110,59.9503357829,duckFrog,001,16,
frog,quackL.wav,-30,landoltCL.png,V1,frogFront.png,duckFront.png,LinCong,b,30,landoltCBottom.png,,,,,0,73,73,22,,,b,0,1.38438958445,,,2020_Mar_11_1110,59.9503357829,duckFrog,001,16,
duck,quackL.wav,30,landoltCTop.png,V1,frogFront.png,duckFront.png,Hcong,h,-30,landoltCL.png,,,,,0,74,74,64,,,h,0,1.65108376746,,,2020_Mar_11_1110,59.9503357829,duckFrog,001,16,
duck,quackR.wav,-30,landoltCR.png,V1,duckFront.png,frogFront.png,Hcong,h,30,landoltCTop.png,,,,,0,75,75,52,,,h,0,0.834034682319,,,2020_Mar_11_1110,59.9503357829,duckFrog,001,16,
frog,wnR.wav,30,landoltCTop.png,V1,duckFront.png,frogFront.png,LinCongWN,h,-30,landoltCL.png,,,,,0,76,76,27,,,h,0,1.35082307091,,,2020_Mar_11_1110,59.9503357829,duckFrog,001,16,
duck,ribbitL.wav,-30,landoltCR.png,V1,duckFront.png,frogFront.png,HinCong,h,30,landoltCTop.png,,,,,0,77,77,6,,,h,0,0.985015813342,,,2020_Mar_11_1110,59.9503357829,duckFrog,001,16,
duck,wnR.wav,30,landoltCTop.png,V1,frogFront.png,duckFront.png,HinCongWN,h,-30,landoltCR.png,,,,,0,78,78,35,,,h,0,1.50136799708,,,2020_Mar_11_1110,59.9503357829,duckFrog,001,16,
frog,wnL.wav,30,landoltCBottom.png,V1,duckFront.png,frogFront.png,LcongWN,b,-30,landoltCR.png,,,,,0,79,79,17,,,b,0,1.13451238162,,,2020_Mar_11_1110,59.9503357829,duckFrog,001,16,
frog,quackR.wav,30,landoltCTop.png,V1,duckFront.png,frogFront.png,LinCong,h,-30,landoltCR.png,,,,,1,0,80,26,,,h,0,1.30126543395,,,2020_Mar_11_1110,59.9503357829,duckFrog,001,16,
duck,wnR.wav,-30,landoltCL.png,V1,duckFront.png,frogFront.png,HcongWN,b,30,landoltCBottom.png,,,,,1,1,81,45,,,b,0,1.35120685787,,,2020_Mar_11_1110,59.9503357829,duckFrog,001,16,
duck,ribbitL.wav,-30,landoltCR.png,V1,duckFront.png,frogFront.png,HinCong,b,30,landoltCBottom.png,,,,,1,2,82,78,,,b,0,1.00098127765,,,2020_Mar_11_1110,59.9503357829,duckFrog,001,16,
duck,quackR.wav,-30,landoltCR.png,V1,duckFront.png,frogFront.png,Hcong,b,30,landoltCBottom.png,,,,,1,3,83,76,,,b,0,1.35124168095,,,2020_Mar_11_1110,59.9503357829,duckFrog,001,16,
duck,quackR.wav,-30,landoltCR.png,V1,duckFront.png,frogFront.png,Hcong,h,30,landoltCTop.png,,,,,1,4,84,68,,,h,0,0.73417419456,,,2020_Mar_11_1110,59.9503357829,duckFrog,001,16,
duck,wnL.wav,30,landoltCTop.png,V1,frogFront.png,duckFront.png,HcongWN,h,-30,landoltCR.png,,,,,1,5,85,1,,,h,0,1.16758807306,,,2020_Mar_11_1110,59.9503357829,duckFrog,001,16,
frog,ribbitL.wav,30,landoltCBottom.png,V1,duckFront.png,frogFront.png,Lcong,b,-30,landoltCL.png,,,,,1,6,86,16,,,b,0,1.13489396923,,,2020_Mar_11_1110,59.9503357829,duckFrog,001,16,
duck,wnR.wav,-30,landoltCL.png,V1,duckFront.png,frogFront.png,HcongWN,h,30,landoltCTop.png,,,,,1,7,87,5,,,h,0,0.900699247381,,,2020_Mar_11_1110,59.9503357829,duckFrog,001,16,
duck,ribbitL.wav,-30,landoltCR.png,V1,duckFront.png,frogFront.png,HinCong,h,30,landoltCTop.png,,,,,1,8,88,6,,,h,0,1.76828064907,,,2020_Mar_11_1110,59.9503357829,duckFrog,001,16,
duck,wnR.wav,30,landoltCBottom.png,V1,frogFront.png,duckFront.png,HinCongWN,b,-30,landoltCL.png,,,,,1,9,89,75,,,b,0,1.40117467402,,,2020_Mar_11_1110,59.9503357829,duckFrog,001,16,
duck,quackR.wav,-30,landoltCR.png,V1,duckFront.png,frogFront.png,Hcong,b,30,landoltCBottom.png,,,,,1,10,90,44,,,b,0,0.900685684709,,,2020_Mar_11_1110,59.9503357829,duckFrog,001,16,
duck,wnR.wav,-30,landoltCL.png,V1,duckFront.png,frogFront.png,HcongWN,h,30,landoltCTop.png,,,,,1,11,91,69,,,h,0,0.767500978712,,,2020_Mar_11_1110,59.9503357829,duckFrog,001,16,
duck,ribbitL.wav,-30,landoltCR.png,V1,duckFront.png,frogFront.png,HinCong,h,30,landoltCTop.png,,,,,1,12,92,54,,,h,0,1.31788923769,,,2020_Mar_11_1110,59.9503357829,duckFrog,001,16,
frog,wnL.wav,-30,landoltCR.png,V1,frogFront.png,duckFront.png,LinCongWN,h,30,landoltCTop.png,,,,,1,13,93,31,,,h,0,0.917710503666,,,2020_Mar_11_1110,59.9503357829,duckFrog,001,16,
duck,wnL.wav,30,landoltCBottom.png,V1,frogFront.png,duckFront.png,HcongWN,b,-30,landoltCL.png,,,,,1,14,94,57,,,b,0,1.40104821127,,,2020_Mar_11_1110,59.9503357829,duckFrog,001,16,
duck,wnR.wav,30,landoltCBottom.png,V1,frogFront.png,duckFront.png,HinCongWN,b,-30,landoltCL.png,,,,,1,15,95,59,,,b,0,1.21785573422,,,2020_Mar_11_1110,59.9503357829,duckFrog,001,16,
duck,wnL.wav,-30,landoltCL.png,V1,duckFront.png,frogFront.png,HinCongWN,b,30,landoltCBottom.png,,,,,1,16,96,15,,,b,0,0.684076250075,,,2020_Mar_11_1110,59.9503357829,duckFrog,001,16,
duck,ribbitL.wav,-30,landoltCR.png,V1,duckFront.png,frogFront.png,HinCong,b,30,landoltCBottom.png,,,,,1,17,97,46,,,b,0,1.25122027392,,,2020_Mar_11_1110,59.9503357829,duckFrog,001,16,
frog,quackL.wav,-30,landoltCL.png,V1,frogFront.png,duckFront.png,LinCong,b,30,landoltCBottom.png,,,,,1,18,98,22,,,b,0,0.81738595259,,,2020_Mar_11_1110,59.9503357829,duckFrog,001,16,
duck,quackL.wav,30,landoltCTop.png,V1,frogFront.png,duckFront.png,Hcong,h,-30,landoltCL.png,,,,,1,19,99,48,,,h,0,1.21786233228,,,2020_Mar_11_1110,59.9503357829,duckFrog,001,16,
duck,ribbitR.wav,30,landoltCBottom.png,V1,frogFront.png,duckFront.png,HinCong,b,-30,landoltCR.png,,,,,1,20,100,42,,,b,0,1.28457051783,,,2020_Mar_11_1110,59.9503357829,duckFrog,001,16,
duck,wnL.wav,30,landoltCTop.png,V1,frogFront.png,duckFront.png,HcongWN,h,-30,landoltCR.png,,,,,1,21,101,49,,,h,0,0.967659991877,,,2020_Mar_11_1110,59.9503357829,duckFrog,001,16,
frog,wnL.wav,-30,landoltCR.png,V1,frogFront.png,duckFront.png,LinCongWN,b,30,landoltCBottom.png,,,,,1,22,102,23,,,b,0,1.36772802517,,,2020_Mar_11_1110,59.9503357829,duckFrog,001,16,
frog,ribbitR.wav,-30,landoltCL.png,V1,frogFront.png,duckFront.png,Lcong,b,30,landoltCBottom.png,,,,,1,23,103,20,,,b,0,0.767488515717,,,2020_Mar_11_1110,59.9503357829,duckFrog,001,16,
frog,quackR.wav,30,landoltCBottom.png,V1,duckFront.png,frogFront.png,LinCong,b,-30,landoltCL.png,,,,,1,24,104,18,,,b,0,0.683720688134,,,2020_Mar_11_1110,59.9503357829,duckFrog,001,16,
frog,wnL.wav,30,landoltCTop.png,V1,duckFront.png,frogFront.png,LcongWN,h,-30,landoltCL.png,,,,,1,25,105,25,,,h,0,1.61834274412,,,2020_Mar_11_1110,59.9503357829,duckFrog,001,16,
duck,quackR.wav,-30,landoltCR.png,V1,duckFront.png,frogFront.png,Hcong,b,30,landoltCBottom.png,,,,,1,26,106,60,,,b,0,1.03415154123,,,2020_Mar_11_1110,59.9503357829,duckFrog,001,16,
duck,quackL.wav,30,landoltCBottom.png,V1,frogFront.png,duckFront.png,Hcong,b,-30,landoltCR.png,,,,,1,27,107,40,,,b,0,0.750592725423,,,2020_Mar_11_1110,59.9503357829,duckFrog,001,16,
duck,ribbitR.wav,30,landoltCBottom.png,V1,frogFront.png,duckFront.png,HinCong,b,-30,landoltCR.png,,,,,1,28,108,74,,,b,0,1.18439442303,,,2020_Mar_11_1110,59.9503357829,duckFrog,001,16,
duck,wnL.wav,30,landoltCBottom.png,V1,frogFront.png,duckFront.png,HcongWN,b,-30,landoltCL.png,,,,,1,29,109,9,,,b,0,0.68413709882,,,2020_Mar_11_1110,59.9503357829,duckFrog,001,16,
duck,wnL.wav,-30,landoltCL.png,V1,duckFront.png,frogFront.png,HinCongWN,h,30,landoltCTop.png,,,,,1,30,110,71,,,h,0,1.41793557071,,,2020_Mar_11_1110,59.9503357829,duckFrog,001,16,
duck,ribbitL.wav,-30,landoltCR.png,V1,duckFront.png,frogFront.png,HinCong,b,30,landoltCBottom.png,,,,,1,31,111,62,,,b,0,1.38479866397,,,2020_Mar_11_1110,59.9503357829,duckFrog,001,16,
frog,quackL.wav,-30,landoltCL.png,V1,frogFront.png,duckFront.png,LinCong,h,30,landoltCTop.png,,,,,1,32,112,30,,,h,0,1.23452719059,,,2020_Mar_11_1110,59.9503357829,duckFrog,001,16,
duck,wnR.wav,30,landoltCTop.png,V1,frogFront.png,duckFront.png,HinCongWN,h,-30,landoltCR.png,,,,,1,33,113,51,,,h,0,0.767121223896,,,2020_Mar_11_1110,59.9503357829,duckFrog,001,16,
duck,wnL.wav,-30,landoltCL.png,V1,duckFront.png,frogFront.png,HinCongWN,h,30,landoltCTop.png,,,,,1,34,114,55,,,h,0,0.7340557961,,,2020_Mar_11_1110,59.9503357829,duckFrog,001,16,
duck,wnR.wav,30,landoltCTop.png,V1,frogFront.png,duckFront.png,HinCongWN,h,-30,landoltCR.png,,,,,1,35,115,35,,,h,0,1.13414399012,,,2020_Mar_11_1110,59.9503357829,duckFrog,001,16,
duck,wnR.wav,-30,landoltCL.png,V1,duckFront.png,frogFront.png,HcongWN,b,30,landoltCBottom.png,,,,,1,36,116,13,,,b,0,1.05038349372,,,2020_Mar_11_1110,59.9503357829,duckFrog,001,16,
frog,wnR.wav,-30,landoltCR.png,V1,frogFront.png,duckFront.png,LcongWN,b,30,landoltCBottom.png,,,,,1,37,117,21,,,b,0,1.15111675774,,,2020_Mar_11_1110,59.9503357829,duckFrog,001,16,
duck,ribbitR.wav,30,landoltCBottom.png,V1,frogFront.png,duckFront.png,HinCong,b,-30,landoltCR.png,,,,,1,38,118,58,,,b,0,1.13397573968,,,2020_Mar_11_1110,59.9503357829,duckFrog,001,16,
duck,quackL.wav,30,landoltCBottom.png,V1,frogFront.png,duckFront.png,Hcong,b,-30,landoltCR.png,,,,,1,39,119,56,,,b,0,0.717488442404,,,2020_Mar_11_1110,59.9503357829,duckFrog,001,16,
frog,ribbitL.wav,30,landoltCTop.png,V1,duckFront.png,frogFront.png,Lcong,h,-30,landoltCR.png,,,,,1,40,120,24,,,h,0,1.45135216174,,,2020_Mar_11_1110,59.9503357829,duckFrog,001,16,
frog,wnR.wav,30,landoltCBottom.png,V1,duckFront.png,frogFront.png,LinCongWN,b,-30,landoltCR.png,,,,,1,41,121,19,,,b,0,1.06770595834,,,2020_Mar_11_1110,59.9503357829,duckFrog,001,16,
duck,wnR.wav,-30,landoltCL.png,V1,duckFront.png,frogFront.png,HcongWN,b,30,landoltCBottom.png,,,,,1,42,122,61,,,b,0,1.28448217718,,,2020_Mar_11_1110,59.9503357829,duckFrog,001,16,
duck,wnL.wav,30,landoltCTop.png,V1,frogFront.png,duckFront.png,HcongWN,h,-30,landoltCR.png,,,,,1,43,123,65,,,b,0,1.10110495455,,,2020_Mar_11_1110,59.9503357829,duckFrog,001,16,
duck,ribbitR.wav,30,landoltCBottom.png,V1,frogFront.png,duckFront.png,HinCong,b,-30,landoltCR.png,,,,,1,44,124,10,,,b,0,1.3846546064,,,2020_Mar_11_1110,59.9503357829,duckFrog,001,16,
duck,wnL.wav,30,landoltCBottom.png,V1,frogFront.png,duckFront.png,HcongWN,b,-30,landoltCL.png,,,,,1,45,125,41,,,b,0,0.634256890204,,,2020_Mar_11_1110,59.9503357829,duckFrog,001,16,
frog,ribbitR.wav,-30,landoltCL.png,V1,frogFront.png,duckFront.png,Lcong,h,30,landoltCTop.png,,,,,1,46,126,28,,,h,0,1.36772839173,,,2020_Mar_11_1110,59.9503357829,duckFrog,001,16,
duck,quackL.wav,30,landoltCTop.png,V1,frogFront.png,duckFront.png,Hcong,h,-30,landoltCL.png,,,,,1,47,127,32,,,h,0,0.767281410049,,,2020_Mar_11_1110,59.9503357829,duckFrog,001,16,
duck,wnR.wav,-30,landoltCL.png,V1,duckFront.png,frogFront.png,HcongWN,b,30,landoltCBottom.png,,,,,1,48,128,77,,,b,0,1.4844854029,,,2020_Mar_11_1110,59.9503357829,duckFrog,001,16,
duck,wnR.wav,30,landoltCTop.png,V1,frogFront.png,duckFront.png,HinCongWN,h,-30,landoltCR.png,,,,,1,49,129,3,,,h,0,1.10059910354,,,2020_Mar_11_1110,59.9503357829,duckFrog,001,16,
duck,quackL.wav,30,landoltCTop.png,V1,frogFront.png,duckFront.png,Hcong,h,-30,landoltCL.png,,,,,1,50,130,0,,,h,0,0.76744196276,,,2020_Mar_11_1110,59.9503357829,duckFrog,001,16,
duck,wnL.wav,30,landoltCBottom.png,V1,frogFront.png,duckFront.png,HcongWN,b,-30,landoltCL.png,,,,,1,51,131,73,,,b,0,0.750854081778,,,2020_Mar_11_1110,59.9503357829,duckFrog,001,16,
duck,wnR.wav,30,landoltCBottom.png,V1,frogFront.png,duckFront.png,HinCongWN,b,-30,landoltCL.png,,,,,1,52,132,43,,,b,0,0.917624362371,,,2020_Mar_11_1110,59.9503357829,duckFrog,001,16,
frog,wnR.wav,-30,landoltCR.png,V1,frogFront.png,duckFront.png,LcongWN,h,30,landoltCTop.png,,,,,1,53,133,29,,,h,0,1.25092116202,,,2020_Mar_11_1110,59.9503357829,duckFrog,001,16,
duck,quackR.wav,-30,landoltCR.png,V1,duckFront.png,frogFront.png,Hcong,h,30,landoltCTop.png,,,,,1,54,134,4,,,h,0,1.41801584707,,,2020_Mar_11_1110,59.9503357829,duckFrog,001,16,
duck,wnL.wav,-30,landoltCL.png,V1,duckFront.png,frogFront.png,HinCongWN,h,30,landoltCTop.png,,,,,1,55,135,39,,,h,0,1.40150054471,,,2020_Mar_11_1110,59.9503357829,duckFrog,001,16,
duck,quackL.wav,30,landoltCBottom.png,V1,frogFront.png,duckFront.png,Hcong,b,-30,landoltCR.png,,,,,1,56,136,72,,,b,0,1.73467528031,,,2020_Mar_11_1110,59.9503357829,duckFrog,001,16,
frog,wnL.wav,30,landoltCBottom.png,V1,duckFront.png,frogFront.png,LcongWN,b,-30,landoltCR.png,,,,,1,57,137,17,,,b,0,0.901157445761,,,2020_Mar_11_1110,59.9503357829,duckFrog,001,16,
duck,ribbitR.wav,30,landoltCTop.png,V1,frogFront.png,duckFront.png,HinCong,h,-30,landoltCL.png,,,,,1,58,138,34,,,h,0,1.58645543599,,,2020_Mar_11_1110,59.9503357829,duckFrog,001,16,
duck,wnR.wav,30,landoltCBottom.png,V1,frogFront.png,duckFront.png,HinCongWN,b,-30,landoltCL.png,,,,,1,59,139,11,,,b,0,0.800880547316,,,2020_Mar_11_1110,59.9503357829,duckFrog,001,16,
duck,wnL.wav,-30,landoltCL.png,V1,duckFront.png,frogFront.png,HinCongWN,h,30,landoltCTop.png,,,,,1,60,140,7,,,h,0,1.23427389853,,,2020_Mar_11_1110,59.9503357829,duckFrog,001,16,
duck,ribbitR.wav,30,landoltCTop.png,V1,frogFront.png,duckFront.png,HinCong,h,-30,landoltCL.png,,,,,1,61,141,66,,,h,0,1.50118691708,,,2020_Mar_11_1110,59.9503357829,duckFrog,001,16,
duck,ribbitL.wav,-30,landoltCR.png,V1,duckFront.png,frogFront.png,HinCong,h,30,landoltCTop.png,,,,,1,62,142,38,,,h,0,1.1177481859,,,2020_Mar_11_1110,59.9503357829,duckFrog,001,16,
duck,quackR.wav,-30,landoltCR.png,V1,duckFront.png,frogFront.png,Hcong,h,30,landoltCTop.png,,,,,1,63,143,52,,,h,0,1.80169687355,,,2020_Mar_11_1110,59.9503357829,duckFrog,001,16,
duck,wnR.wav,30,landoltCTop.png,V1,frogFront.png,duckFront.png,HinCongWN,h,-30,landoltCR.png,,,,,1,64,144,67,,,h,0,1.56784451753,,,2020_Mar_11_1110,59.9503357829,duckFrog,001,16,
duck,quackR.wav,-30,landoltCR.png,V1,duckFront.png,frogFront.png,Hcong,h,30,landoltCTop.png,,,,,1,65,145,36,,,h,0,0.967425760867,,,2020_Mar_11_1110,59.9503357829,duckFrog,001,16,
frog,wnR.wav,30,landoltCTop.png,V1,duckFront.png,frogFront.png,LinCongWN,h,-30,landoltCL.png,,,,,1,66,146,27,,,h,0,1.38442184162,,,2020_Mar_11_1110,59.9503357829,duckFrog,001,16,
duck,quackL.wav,30,landoltCBottom.png,V1,frogFront.png,duckFront.png,Hcong,b,-30,landoltCR.png,,,,,1,67,147,8,,,h,0,1.95194415405,,,2020_Mar_11_1110,59.9503357829,duckFrog,001,16,
duck,wnL.wav,-30,landoltCL.png,V1,duckFront.png,frogFront.png,HinCongWN,b,30,landoltCBottom.png,,,,,1,68,148,79,,,b,0,1.38438261984,,,2020_Mar_11_1110,59.9503357829,duckFrog,001,16,
duck,wnL.wav,-30,landoltCL.png,V1,duckFront.png,frogFront.png,HinCongWN,b,30,landoltCBottom.png,,,,,1,69,149,47,,,b,0,1.30135230837,,,2020_Mar_11_1110,59.9503357829,duckFrog,001,16,
duck,ribbitL.wav,-30,landoltCR.png,V1,duckFront.png,frogFront.png,HinCong,h,30,landoltCTop.png,,,,,1,70,150,70,,,h,0,1.13451678032,,,2020_Mar_11_1110,59.9503357829,duckFrog,001,16,
duck,wnR.wav,-30,landoltCL.png,V1,duckFront.png,frogFront.png,HcongWN,h,30,landoltCTop.png,,,,,1,71,151,37,,,h,0,1.65162810713,,,2020_Mar_11_1110,59.9503357829,duckFrog,001,16,
duck,wnR.wav,-30,landoltCL.png,V1,duckFront.png,frogFront.png,HcongWN,h,30,landoltCTop.png,,,,,1,72,152,53,,,h,0,0.684133433233,,,2020_Mar_11_1110,59.9503357829,duckFrog,001,16,
duck,wnL.wav,-30,landoltCL.png,V1,duckFront.png,frogFront.png,HinCongWN,b,30,landoltCBottom.png,,,,,1,73,153,63,,,h,0,1.06779393243,,,2020_Mar_11_1110,59.9503357829,duckFrog,001,16,
duck,ribbitR.wav,30,landoltCTop.png,V1,frogFront.png,duckFront.png,HinCong,h,-30,landoltCL.png,,,,,1,74,154,2,,,h,0,1.16743228561,,,2020_Mar_11_1110,59.9503357829,duckFrog,001,16,
duck,ribbitL.wav,-30,landoltCR.png,V1,duckFront.png,frogFront.png,HinCong,b,30,landoltCBottom.png,,,,,1,75,155,14,,,b,0,1.35124864557,,,2020_Mar_11_1110,59.9503357829,duckFrog,001,16,
duck,quackL.wav,30,landoltCTop.png,V1,frogFront.png,duckFront.png,Hcong,h,-30,landoltCL.png,,,,,1,76,156,64,,,h,0,1.05085965347,,,2020_Mar_11_1110,59.9503357829,duckFrog,001,16,
duck,quackR.wav,-30,landoltCR.png,V1,duckFront.png,frogFront.png,Hcong,b,30,landoltCBottom.png,,,,,1,77,157,12,,,b,0,1.63467476713,,,2020_Mar_11_1110,59.9503357829,duckFrog,001,16,
duck,wnL.wav,30,landoltCTop.png,V1,frogFront.png,duckFront.png,HcongWN,h,-30,landoltCR.png,,,,,1,78,158,33,,,h,0,1.01735435523,,,2020_Mar_11_1110,59.9503357829,duckFrog,001,16,
duck,ribbitR.wav,30,landoltCTop.png,V1,frogFront.png,duckFront.png,HinCong,h,-30,landoltCL.png,,,,,1,79,159,50,,,h,0,1.38487747409,,,2020_Mar_11_1110,59.9503357829,duckFrog,001,16,
duck,wnR.wav,30,landoltCBottom.png,V1,frogFront.png,duckFront.png,HinCongWN,b,-30,landoltCL.png,,,,,2,0,160,43,,,b,0,1.60171784071,,,2020_Mar_11_1110,59.9503357829,duckFrog,001,16,
duck,ribbitR.wav,30,landoltCTop.png,V1,frogFront.png,duckFront.png,HinCong,h,-30,landoltCL.png,,,,,2,1,161,50,,,h,0,2.71902359025,,,2020_Mar_11_1110,59.9503357829,duckFrog,001,16,
duck,ribbitR.wav,30,landoltCTop.png,V1,frogFront.png,duckFront.png,HinCong,h,-30,landoltCL.png,,,,,2,2,162,34,,,h,0,1.26808930543,,,2020_Mar_11_1110,59.9503357829,duckFrog,001,16,
duck,quackR.wav,-30,landoltCR.png,V1,duckFront.png,frogFront.png,Hcong,h,30,landoltCTop.png,,,,,2,3,163,4,,,h,0,0.967406333255,,,2020_Mar_11_1110,59.9503357829,duckFrog,001,16,
frog,wnR.wav,-30,landoltCR.png,V1,frogFront.png,duckFront.png,LcongWN,h,30,landoltCTop.png,,,,,2,4,164,29,,,h,0,1.11784092525,,,2020_Mar_11_1110,59.9503357829,duckFrog,001,16,
duck,wnR.wav,-30,landoltCL.png,V1,duckFront.png,frogFront.png,HcongWN,b,30,landoltCBottom.png,,,,,2,5,165,13,,,b,0,1.58485064199,,,2020_Mar_11_1110,59.9503357829,duckFrog,001,16,
frog,wnR.wav,30,landoltCTop.png,V1,duckFront.png,frogFront.png,LinCongWN,h,-30,landoltCL.png,,,,,2,6,166,27,,,h,0,1.61791057141,,,2020_Mar_11_1110,59.9503357829,duckFrog,001,16,
frog,quackR.wav,30,landoltCBottom.png,V1,duckFront.png,frogFront.png,LinCong,b,-30,landoltCL.png,,,,,2,7,167,18,,,b,0,0.867833227519,,,2020_Mar_11_1110,59.9503357829,duckFrog,001,16,
duck,quackR.wav,-30,landoltCR.png,V1,duckFront.png,frogFront.png,Hcong,h,30,landoltCTop.png,,,,,2,8,168,52,,,h,0,1.7179810973,,,2020_Mar_11_1110,59.9503357829,duckFrog,001,16,
frog,wnL.wav,30,landoltCBottom.png,V1,duckFront.png,frogFront.png,LcongWN,b,-30,landoltCR.png,,,,,2,9,169,17,,,b,0,1.10087145666,,,2020_Mar_11_1110,59.9503357829,duckFrog,001,16,
duck,quackR.wav,-30,landoltCR.png,V1,duckFront.png,frogFront.png,Hcong,b,30,landoltCBottom.png,,,,,2,10,170,76,,,b,0,0.85065372079,,,2020_Mar_11_1110,59.9503357829,duckFrog,001,16,
duck,wnL.wav,-30,landoltCL.png,V1,duckFront.png,frogFront.png,HinCongWN,b,30,landoltCBottom.png,,,,,2,11,171,79,,,b,0,1.31790133413,,,2020_Mar_11_1110,59.9503357829,duckFrog,001,16,
duck,wnL.wav,30,landoltCTop.png,V1,frogFront.png,duckFront.png,HcongWN,h,-30,landoltCR.png,,,,,2,12,172,1,,,h,0,1.1342000736,,,2020_Mar_11_1110,59.9503357829,duckFrog,001,16,
duck,wnR.wav,30,landoltCTop.png,V1,frogFront.png,duckFront.png,HinCongWN,h,-30,landoltCR.png,,,,,2,13,173,51,,,h,0,0.867737922257,,,2020_Mar_11_1110,59.9503357829,duckFrog,001,16,
duck,wnL.wav,-30,landoltCL.png,V1,duckFront.png,frogFront.png,HinCongWN,h,30,landoltCTop.png,,,,,2,14,174,39,,,h,0,1.08417470774,,,2020_Mar_11_1110,59.9503357829,duckFrog,001,16,
duck,wnR.wav,30,landoltCBottom.png,V1,frogFront.png,duckFront.png,HinCongWN,b,-30,landoltCL.png,,,,,2,15,175,75,,,b,0,1.43452931663,,,2020_Mar_11_1110,59.9503357829,duckFrog,001,16,
frog,ribbitR.wav,-30,landoltCL.png,V1,frogFront.png,duckFront.png,Lcong,b,30,landoltCBottom.png,,,,,2,16,176,20,,,b,0,1.00076904016,,,2020_Mar_11_1110,59.9503357829,duckFrog,001,16,
duck,wnL.wav,30,landoltCBottom.png,V1,frogFront.png,duckFront.png,HcongWN,b,-30,landoltCL.png,,,,,2,17,177,73,,,b,0,0.819450044647,,,2020_Mar_11_1110,59.9503357829,duckFrog,001,16,
duck,quackL.wav,30,landoltCTop.png,V1,frogFront.png,duckFront.png,Hcong,h,-30,landoltCL.png,,,,,2,18,178,32,,,h,0,0.934293985944,,,2020_Mar_11_1110,59.9503357829,duckFrog,001,16,
duck,ribbitR.wav,30,landoltCBottom.png,V1,frogFront.png,duckFront.png,HinCong,b,-30,landoltCR.png,,,,,2,19,179,58,,,h,0,1.01787376891,,,2020_Mar_11_1110,59.9503357829,duckFrog,001,16,
duck,wnL.wav,-30,landoltCL.png,V1,duckFront.png,frogFront.png,HinCongWN,h,30,landoltCTop.png,,,,,2,20,180,71,,,b,0,1.25087717498,,,2020_Mar_11_1110,59.9503357829,duckFrog,001,16,
duck,ribbitL.wav,-30,landoltCR.png,V1,duckFront.png,frogFront.png,HinCong,h,30,landoltCTop.png,,,,,2,21,181,54,,,h,0,1.78495357167,,,2020_Mar_11_1110,59.9503357829,duckFrog,001,16,
duck,wnL.wav,-30,landoltCL.png,V1,duckFront.png,frogFront.png,HinCongWN,b,30,landoltCBottom.png,,,,,2,22,182,63,,,b,0,1.6849618559,,,2020_Mar_11_1110,59.9503357829,duckFrog,001,16,
duck,quackL.wav,30,landoltCTop.png,V1,frogFront.png,duckFront.png,Hcong,h,-30,landoltCL.png,,,,,2,23,183,64,,,h,0,1.3346215428,,,2020_Mar_11_1110,59.9503357829,duckFrog,001,16,
duck,quackL.wav,30,landoltCBottom.png,V1,frogFront.png,duckFront.png,Hcong,b,-30,landoltCR.png,,,,,2,24,184,72,,,b,0,0.867543646144,,,2020_Mar_11_1110,59.9503357829,duckFrog,001,16,
duck,wnL.wav,30,landoltCTop.png,V1,frogFront.png,duckFront.png,HcongWN,h,-30,landoltCR.png,,,,,2,25,185,49,,,h,0,0.76749877936,,,2020_Mar_11_1110,59.9503357829,duckFrog,001,16,
duck,ribbitL.wav,-30,landoltCR.png,V1,duckFront.png,frogFront.png,HinCong,h,30,landoltCTop.png,,,,,2,26,186,38,,,h,0,1.41755471622,,,2020_Mar_11_1110,59.9503357829,duckFrog,001,16,
duck,quackL.wav,30,landoltCBottom.png,V1,frogFront.png,duckFront.png,Hcong,b,-30,landoltCR.png,,,,,2,27,187,56,,,b,0,0.967600242809,,,2020_Mar_11_1110,59.9503357829,duckFrog,001,16,
duck,ribbitL.wav,-30,landoltCR.png,V1,duckFront.png,frogFront.png,HinCong,h,30,landoltCTop.png,,,,,2,28,188,6,,,h,0,1.46776849325,,,2020_Mar_11_1110,59.9503357829,duckFrog,001,16,
duck,quackR.wav,-30,landoltCR.png,V1,duckFront.png,frogFront.png,Hcong,h,30,landoltCTop.png,,,,,2,29,189,36,,,h,0,1.05110304845,,,2020_Mar_11_1110,59.9503357829,duckFrog,001,16,
duck,wnL.wav,-30,landoltCL.png,V1,duckFront.png,frogFront.png,HinCongWN,h,30,landoltCTop.png,,,,,2,30,190,55,,,h,0,1.57258595435,,,2020_Mar_11_1110,59.9503357829,duckFrog,001,16,
duck,ribbitL.wav,-30,landoltCR.png,V1,duckFront.png,frogFront.png,HinCong,b,30,landoltCBottom.png,,,,,2,31,191,78,,,b,0,1.36830315578,,,2020_Mar_11_1110,59.9503357829,duckFrog,001,16,
duck,quackR.wav,-30,landoltCR.png,V1,duckFront.png,frogFront.png,Hcong,b,30,landoltCBottom.png,,,,,2,32,192,60,,,b,0,1.28452066585,,,2020_Mar_11_1110,59.9503357829,duckFrog,001,16,
frog,ribbitL.wav,30,landoltCTop.png,V1,duckFront.png,frogFront.png,Lcong,h,-30,landoltCR.png,,,,,2,33,193,24,,,h,0,1.1005657467,,,2020_Mar_11_1110,59.9503357829,duckFrog,001,16,
duck,quackL.wav,30,landoltCTop.png,V1,frogFront.png,duckFront.png,Hcong,h,-30,landoltCL.png,,,,,2,34,194,0,,,h,0,1.35130143002,,,2020_Mar_11_1110,59.9503357829,duckFrog,001,16,
duck,wnR.wav,-30,landoltCL.png,V1,duckFront.png,frogFront.png,HcongWN,b,30,landoltCBottom.png,,,,,2,35,195,45,,,b,0,1.56794165558,,,2020_Mar_11_1110,59.9503357829,duckFrog,001,16,
duck,wnR.wav,-30,landoltCL.png,V1,duckFront.png,frogFront.png,HcongWN,h,30,landoltCTop.png,,,,,2,36,196,37,,,h,0,1.0679192955,,,2020_Mar_11_1110,59.9503357829,duckFrog,001,16,
duck,ribbitR.wav,30,landoltCTop.png,V1,frogFront.png,duckFront.png,HinCong,h,-30,landoltCL.png,,,,,2,37,197,66,,,h,0,1.73472219982,,,2020_Mar_11_1110,59.9503357829,duckFrog,001,16,
duck,wnR.wav,-30,landoltCL.png,V1,duckFront.png,frogFront.png,HcongWN,h,30,landoltCTop.png,,,,,2,38,198,5,,,h,0,1.23412250978,,,2020_Mar_11_1110,59.9503357829,duckFrog,001,16,
frog,quackL.wav,-30,landoltCL.png,V1,frogFront.png,duckFront.png,LinCong,h,30,landoltCTop.png,,,,,2,39,199,30,,,h,0,0.867642983553,,,2020_Mar_11_1110,59.9503357829,duckFrog,001,16,
duck,wnL.wav,-30,landoltCL.png,V1,duckFront.png,frogFront.png,HinCongWN,b,30,landoltCBottom.png,,,,,2,40,200,47,,,b,0,1.5681022083,,,2020_Mar_11_1110,59.9503357829,duckFrog,001,16,
duck,quackR.wav,-30,landoltCR.png,V1,duckFront.png,frogFront.png,Hcong,b,30,landoltCBottom.png,,,,,2,41,201,44,,,b,0,1.101351282,,,2020_Mar_11_1110,59.9503357829,duckFrog,001,16,
duck,ribbitR.wav,30,landoltCBottom.png,V1,frogFront.png,duckFront.png,HinCong,b,-30,landoltCR.png,,,,,2,42,202,74,,,b,0,1.46793344467,,,2020_Mar_11_1110,59.9503357829,duckFrog,001,16,
duck,quackR.wav,-30,landoltCR.png,V1,duckFront.png,frogFront.png,Hcong,h,30,landoltCTop.png,,,,,2,43,203,68,,,h,0,1.28444662099,,,2020_Mar_11_1110,59.9503357829,duckFrog,001,16,
duck,ribbitL.wav,-30,landoltCR.png,V1,duckFront.png,frogFront.png,HinCong,b,30,landoltCBottom.png,,,,,2,44,204,14,,,b,0,1.66824421314,,,2020_Mar_11_1110,59.9503357829,duckFrog,001,16,
duck,quackR.wav,-30,landoltCR.png,V1,duckFront.png,frogFront.png,Hcong,b,30,landoltCBottom.png,,,,,2,45,205,12,,,b,0,0.700850709438,,,2020_Mar_11_1110,59.9503357829,duckFrog,001,16,
duck,quackL.wav,30,landoltCTop.png,V1,frogFront.png,duckFront.png,Hcong,h,-30,landoltCL.png,,,,,2,46,206,48,,,h,0,1.45117694668,,,2020_Mar_11_1110,59.9503357829,duckFrog,001,16,
duck,wnR.wav,30,landoltCBottom.png,V1,frogFront.png,duckFront.png,HinCongWN,b,-30,landoltCL.png,,,,,2,47,207,59,,,b,0,1.22123027364,,,2020_Mar_11_1110,59.9503357829,duckFrog,001,16,
duck,wnR.wav,-30,landoltCL.png,V1,duckFront.png,frogFront.png,HcongWN,b,30,landoltCBottom.png,,,,,2,48,208,61,,,b,0,0.700533269601,,,2020_Mar_11_1110,59.9503357829,duckFrog,001,16,
frog,wnL.wav,-30,landoltCR.png,V1,frogFront.png,duckFront.png,LinCongWN,h,30,landoltCTop.png,,,,,2,49,209,31,,,h,0,1.41795169929,,,2020_Mar_11_1110,59.9503357829,duckFrog,001,16,
frog,wnL.wav,30,landoltCTop.png,V1,duckFront.png,frogFront.png,LcongWN,h,-30,landoltCL.png,,,,,2,50,210,25,,,h,0,0.700337527253,,,2020_Mar_11_1110,59.9503357829,duckFrog,001,16,
frog,wnL.wav,-30,landoltCR.png,V1,frogFront.png,duckFront.png,LinCongWN,b,30,landoltCBottom.png,,,,,2,51,211,23,,,b,0,1.250880474,,,2020_Mar_11_1110,59.9503357829,duckFrog,001,16,
duck,ribbitR.wav,30,landoltCTop.png,V1,frogFront.png,duckFront.png,HinCong,h,-30,landoltCL.png,,,,,2,52,212,2,,,h,0,1.43420491218,,,2020_Mar_11_1110,59.9503357829,duckFrog,001,16,
frog,quackL.wav,-30,landoltCL.png,V1,frogFront.png,duckFront.png,LinCong,b,30,landoltCBottom.png,,,,,2,53,213,22,,,b,0,2.25165391287,,,2020_Mar_11_1110,59.9503357829,duckFrog,001,16,
duck,ribbitL.wav,-30,landoltCR.png,V1,duckFront.png,frogFront.png,HinCong,b,30,landoltCBottom.png,,,,,2,54,214,62,,,b,0,1.33462300904,,,2020_Mar_11_1110,59.9503357829,duckFrog,001,16,
duck,wnR.wav,30,landoltCBottom.png,V1,frogFront.png,duckFront.png,HinCongWN,b,-30,landoltCL.png,,,,,2,55,215,11,,,b,0,1.31764364336,,,2020_Mar_11_1110,59.9503357829,duckFrog,001,16,
frog,ribbitL.wav,30,landoltCBottom.png,V1,duckFront.png,frogFront.png,Lcong,b,-30,landoltCL.png,,,,,2,56,216,16,,,b,0,0.817524145221,,,2020_Mar_11_1110,59.9503357829,duckFrog,001,16,
duck,quackL.wav,30,landoltCBottom.png,V1,frogFront.png,duckFront.png,Hcong,b,-30,landoltCR.png,,,,,2,57,217,40,,,b,0,0.917582208121,,,2020_Mar_11_1110,59.9503357829,duckFrog,001,16,
duck,ribbitL.wav,-30,landoltCR.png,V1,duckFront.png,frogFront.png,HinCong,b,30,landoltCBottom.png,,,,,2,58,218,46,,,b,0,1.1673666716,,,2020_Mar_11_1110,59.9503357829,duckFrog,001,16,
frog,quackR.wav,30,landoltCTop.png,V1,duckFront.png,frogFront.png,LinCong,h,-30,landoltCR.png,,,,,2,59,219,26,,,h,0,1.23442785318,,,2020_Mar_11_1110,59.9503357829,duckFrog,001,16,
duck,ribbitR.wav,30,landoltCBottom.png,V1,frogFront.png,duckFront.png,HinCong,b,-30,landoltCR.png,,,,,2,60,220,10,,,b,0,0.617396289546,,,2020_Mar_11_1110,59.9503357829,duckFrog,001,16,
duck,wnR.wav,-30,landoltCL.png,V1,duckFront.png,frogFront.png,HcongWN,b,30,landoltCBottom.png,,,,,2,61,221,77,,,b,0,0.783962030384,,,2020_Mar_11_1110,59.9503357829,duckFrog,001,16,
duck,wnL.wav,30,landoltCTop.png,V1,frogFront.png,duckFront.png,HcongWN,h,-30,landoltCR.png,,,,,2,62,222,65,,,h,0,0.733625089623,,,2020_Mar_11_1110,59.9503357829,duckFrog,001,16,
frog,wnR.wav,-30,landoltCR.png,V1,frogFront.png,duckFront.png,LcongWN,b,30,landoltCBottom.png,,,,,2,63,223,21,,,b,0,0.633742241786,,,2020_Mar_11_1110,59.9503357829,duckFrog,001,16,
duck,wnR.wav,30,landoltCTop.png,V1,frogFront.png,duckFront.png,HinCongWN,h,-30,landoltCR.png,,,,,2,64,224,3,,,h,0,1.0673654253,,,2020_Mar_11_1110,59.9503357829,duckFrog,001,16,
duck,wnR.wav,30,landoltCTop.png,V1,frogFront.png,duckFront.png,HinCongWN,h,-30,landoltCR.png,,,,,2,65,225,35,,,h,0,1.21780148354,,,2020_Mar_11_1110,59.9503357829,duckFrog,001,16,
duck,wnL.wav,-30,landoltCL.png,V1,duckFront.png,frogFront.png,HinCongWN,b,30,landoltCBottom.png,,,,,2,66,226,15,,,h,0,1.30101067566,,,2020_Mar_11_1110,59.9503357829,duckFrog,001,16,
frog,wnR.wav,30,landoltCBottom.png,V1,duckFront.png,frogFront.png,LinCongWN,b,-30,landoltCR.png,,,,,2,67,227,19,,,b,0,0.784114885362,,,2020_Mar_11_1110,59.9503357829,duckFrog,001,16,
duck,wnL.wav,30,landoltCTop.png,V1,frogFront.png,duckFront.png,HcongWN,h,-30,landoltCR.png,,,,,2,68,228,33,,,h,0,1.40157385645,,,2020_Mar_11_1110,59.9503357829,duckFrog,001,16,
duck,quackL.wav,30,landoltCBottom.png,V1,frogFront.png,duckFront.png,Hcong,b,-30,landoltCR.png,,,,,2,69,229,8,,,b,0,1.18465907841,,,2020_Mar_11_1110,59.9503357829,duckFrog,001,16,
duck,wnL.wav,30,landoltCBottom.png,V1,frogFront.png,duckFront.png,HcongWN,b,-30,landoltCL.png,,,,,2,70,230,57,,,b,0,0.851071231154,,,2020_Mar_11_1110,59.9503357829,duckFrog,001,16,
duck,ribbitL.wav,-30,landoltCR.png,V1,duckFront.png,frogFront.png,HinCong,h,30,landoltCTop.png,,,,,2,71,231,70,,,h,0,1.33442909948,,,2020_Mar_11_1110,59.9503357829,duckFrog,001,16,
duck,wnR.wav,-30,landoltCL.png,V1,duckFront.png,frogFront.png,HcongWN,h,30,landoltCTop.png,,,,,2,72,232,53,,,h,0,0.734295158933,,,2020_Mar_11_1110,59.9503357829,duckFrog,001,16,
duck,wnL.wav,-30,landoltCL.png,V1,duckFront.png,frogFront.png,HinCongWN,h,30,landoltCTop.png,,,,,2,73,233,7,,,h,0,1.21776702702,,,2020_Mar_11_1110,59.9503357829,duckFrog,001,16,
duck,wnL.wav,30,landoltCBottom.png,V1,frogFront.png,duckFront.png,HcongWN,b,-30,landoltCL.png,,,,,2,74,234,9,,,b,0,1.10087548881,,,2020_Mar_11_1110,59.9503357829,duckFrog,001,16,
duck,wnR.wav,-30,landoltCL.png,V1,duckFront.png,frogFront.png,HcongWN,h,30,landoltCTop.png,,,,,2,75,235,69,,,h,0,1.15071207694,,,2020_Mar_11_1110,59.9503357829,duckFrog,001,16,
duck,ribbitR.wav,30,landoltCBottom.png,V1,frogFront.png,duckFront.png,HinCong,b,-30,landoltCR.png,,,,,2,76,236,42,,,b,0,1.46807017107,,,2020_Mar_11_1110,59.9503357829,duckFrog,001,16,
duck,wnL.wav,30,landoltCBottom.png,V1,frogFront.png,duckFront.png,HcongWN,b,-30,landoltCL.png,,,,,2,77,237,41,,,b,0,1.0512863278,,,2020_Mar_11_1110,59.9503357829,duckFrog,001,16,
duck,wnR.wav,30,landoltCTop.png,V1,frogFront.png,duckFront.png,HinCongWN,h,-30,landoltCR.png,,,,,2,78,238,67,,,h,0,1.31857873461,,,2020_Mar_11_1110,59.9503357829,duckFrog,001,16,
frog,ribbitR.wav,-30,landoltCL.png,V1,frogFront.png,duckFront.png,Lcong,h,30,landoltCTop.png,,,,,2,79,239,28,,,h,0,1.10088721868,,,2020_Mar_11_1110,59.9503357829,duckFrog,001,16,
duck,wnR.wav,-30,landoltCL.png,V1,duckFront.png,frogFront.png,HcongWN,h,30,landoltCTop.png,,,,,3,0,240,37,,,h,0,1.05110854683,,,2020_Mar_11_1110,59.9503357829,duckFrog,001,16,
frog,quackL.wav,-30,landoltCL.png,V1,frogFront.png,duckFront.png,LinCong,h,30,landoltCTop.png,,,,,3,1,241,30,,,h,0,1.41801804642,,,2020_Mar_11_1110,59.9503357829,duckFrog,001,16,
frog,wnL.wav,-30,landoltCR.png,V1,frogFront.png,duckFront.png,LinCongWN,b,30,landoltCBottom.png,,,,,3,2,242,23,,,b,0,2.38545553716,,,2020_Mar_11_1110,59.9503357829,duckFrog,001,16,
duck,wnL.wav,-30,landoltCL.png,V1,duckFront.png,frogFront.png,HinCongWN,b,30,landoltCBottom.png,,,,,3,3,243,47,,,b,0,1.30125736966,,,2020_Mar_11_1110,59.9503357829,duckFrog,001,16,
duck,wnR.wav,30,landoltCBottom.png,V1,frogFront.png,duckFront.png,HinCongWN,b,-30,landoltCL.png,,,,,3,4,244,75,,,b,0,1.16747187395,,,2020_Mar_11_1110,59.9503357829,duckFrog,001,16,
frog,wnR.wav,30,landoltCBottom.png,V1,duckFront.png,frogFront.png,LinCongWN,b,-30,landoltCR.png,,,,,3,5,245,19,,,b,0,1.13450651668,,,2020_Mar_11_1110,59.9503357829,duckFrog,001,16,
duck,wnL.wav,-30,landoltCL.png,V1,duckFront.png,frogFront.png,HinCongWN,h,30,landoltCTop.png,,,,,3,6,246,39,,,h,0,1.20086903737,,,2020_Mar_11_1110,59.9503357829,duckFrog,001,16,
duck,wnR.wav,-30,landoltCL.png,V1,duckFront.png,frogFront.png,HcongWN,b,30,landoltCBottom.png,,,,,3,7,247,77,,,b,0,1.31794385494,,,2020_Mar_11_1110,59.9503357829,duckFrog,001,16,
duck,quackR.wav,-30,landoltCR.png,V1,duckFront.png,frogFront.png,Hcong,h,30,landoltCTop.png,,,,,3,8,248,52,,,h,0,0.817556035829,,,2020_Mar_11_1110,59.9503357829,duckFrog,001,16,
duck,wnL.wav,-30,landoltCL.png,V1,duckFront.png,frogFront.png,HinCongWN,b,30,landoltCBottom.png,,,,,3,9,249,63,,,b,0,1.36797435262,,,2020_Mar_11_1110,59.9503357829,duckFrog,001,16,
duck,wnL.wav,30,landoltCTop.png,V1,frogFront.png,duckFront.png,HcongWN,h,-30,landoltCR.png,,,,,3,10,250,49,,,h,0,0.984035635371,,,2020_Mar_11_1110,59.9503357829,duckFrog,001,16,
duck,wnR.wav,-30,landoltCL.png,V1,duckFront.png,frogFront.png,HcongWN,h,30,landoltCTop.png,,,,,3,11,251,5,,,h,0,0.717109054146,,,2020_Mar_11_1110,59.9503357829,duckFrog,001,16,
duck,quackR.wav,-30,landoltCR.png,V1,duckFront.png,frogFront.png,Hcong,h,30,landoltCTop.png,,,,,3,12,252,68,,,h,0,0.684162024811,,,2020_Mar_11_1110,59.9503357829,duckFrog,001,16,
duck,wnR.wav,30,landoltCBottom.png,V1,frogFront.png,duckFront.png,HinCongWN,b,-30,landoltCL.png,,,,,3,13,253,11,,,b,0,1.11776834663,,,2020_Mar_11_1110,59.9503357829,duckFrog,001,16,
duck,wnR.wav,30,landoltCBottom.png,V1,frogFront.png,duckFront.png,HinCongWN,b,-30,landoltCL.png,,,,,3,14,254,43,,,b,0,1.21809106491,,,2020_Mar_11_1110,59.9503357829,duckFrog,001,16,
duck,ribbitR.wav,30,landoltCTop.png,V1,frogFront.png,duckFront.png,HinCong,h,-30,landoltCL.png,,,,,3,15,255,2,,,h,0,0.734116644844,,,2020_Mar_11_1110,59.9503357829,duckFrog,001,16,
duck,ribbitL.wav,-30,landoltCR.png,V1,duckFront.png,frogFront.png,HinCong,b,30,landoltCBottom.png,,,,,3,16,256,62,,,b,0,1.08435578774,,,2020_Mar_11_1110,59.9503357829,duckFrog,001,16,
duck,wnL.wav,30,landoltCBottom.png,V1,frogFront.png,duckFront.png,HcongWN,b,-30,landoltCL.png,,,,,3,17,257,73,,,b,0,1.00078443562,,,2020_Mar_11_1110,59.9503357829,duckFrog,001,16,
duck,quackL.wav,30,landoltCTop.png,V1,frogFront.png,duckFront.png,Hcong,h,-30,landoltCL.png,,,,,3,18,258,48,,,b,0,1.05113420594,,,2020_Mar_11_1110,59.9503357829,duckFrog,001,16,
duck,wnR.wav,-30,landoltCL.png,V1,duckFront.png,frogFront.png,HcongWN,b,30,landoltCBottom.png,,,,,3,19,259,45,,,b,0,0.83390125495,,,2020_Mar_11_1110,59.9503357829,duckFrog,001,16,
duck,ribbitR.wav,30,landoltCBottom.png,V1,frogFront.png,duckFront.png,HinCong,b,-30,landoltCR.png,,,,,3,20,260,74,,,b,0,1.30115656602,,,2020_Mar_11_1110,59.9503357829,duckFrog,001,16,
duck,ribbitL.wav,-30,landoltCR.png,V1,duckFront.png,frogFront.png,HinCong,h,30,landoltCTop.png,,,,,3,21,261,6,,,h,0,1.40102291872,,,2020_Mar_11_1110,59.9503357829,duckFrog,001,16,
duck,quackL.wav,30,landoltCTop.png,V1,frogFront.png,duckFront.png,Hcong,h,-30,landoltCL.png,,,,,3,22,262,0,,,h,0,0.835805527412,,,2020_Mar_11_1110,59.9503357829,duckFrog,001,16,
duck,quackL.wav,30,landoltCTop.png,V1,frogFront.png,duckFront.png,Hcong,h,-30,landoltCL.png,,,,,3,23,263,32,,,h,0,1.40160831296,,,2020_Mar_11_1110,59.9503357829,duckFrog,001,16,
frog,ribbitL.wav,30,landoltCBottom.png,V1,duckFront.png,frogFront.png,Lcong,b,-30,landoltCL.png,,,,,3,24,264,16,,,b,0,1.46808703277,,,2020_Mar_11_1110,59.9503357829,duckFrog,001,16,
duck,wnR.wav,30,landoltCTop.png,V1,frogFront.png,duckFront.png,HinCongWN,h,-30,landoltCR.png,,,,,3,25,265,51,,,h,0,0.984487602252,,,2020_Mar_11_1110,59.9503357829,duckFrog,001,16,
duck,wnL.wav,30,landoltCBottom.png,V1,frogFront.png,duckFront.png,HcongWN,b,-30,landoltCL.png,,,,,3,26,266,9,,,b,0,0.617434411652,,,2020_Mar_11_1110,59.9503357829,duckFrog,001,16,
duck,wnR.wav,30,landoltCTop.png,V1,frogFront.png,duckFront.png,HinCongWN,h,-30,landoltCR.png,,,,,3,27,267,67,,,h,0,1.05102497145,,,2020_Mar_11_1110,59.9503357829,duckFrog,001,16,
duck,quackL.wav,30,landoltCBottom.png,V1,frogFront.png,duckFront.png,Hcong,b,-30,landoltCR.png,,,,,3,28,268,40,,,b,0,0.767716881788,,,2020_Mar_11_1110,59.9503357829,duckFrog,001,16,
duck,wnR.wav,-30,landoltCL.png,V1,duckFront.png,frogFront.png,HcongWN,h,30,landoltCTop.png,,,,,3,29,269,53,,,h,0,0.734082554884,,,2020_Mar_11_1110,59.9503357829,duckFrog,001,16,
duck,quackR.wav,-30,landoltCR.png,V1,duckFront.png,frogFront.png,Hcong,b,30,landoltCBottom.png,,,,,3,30,270,76,,,b,0,0.867645549464,,,2020_Mar_11_1110,59.9503357829,duckFrog,001,16,
duck,wnL.wav,30,landoltCTop.png,V1,frogFront.png,duckFront.png,HcongWN,h,-30,landoltCR.png,,,,,3,31,271,65,,,h,0,0.850648588968,,,2020_Mar_11_1110,59.9503357829,duckFrog,001,16,
frog,ribbitR.wav,-30,landoltCL.png,V1,frogFront.png,duckFront.png,Lcong,b,30,landoltCBottom.png,,,,,3,32,272,20,,,b,0,0.733901108328,,,2020_Mar_11_1110,59.9503357829,duckFrog,001,16,
duck,ribbitR.wav,30,landoltCTop.png,V1,frogFront.png,duckFront.png,HinCong,h,-30,landoltCL.png,,,,,3,33,273,66,,,h,0,1.26778286235,,,2020_Mar_11_1110,59.9503357829,duckFrog,001,16,
duck,quackR.wav,-30,landoltCR.png,V1,duckFront.png,frogFront.png,Hcong,h,30,landoltCTop.png,,,,,3,34,274,4,,,h,0,1.41787142294,,,2020_Mar_11_1110,59.9503357829,duckFrog,001,16,
duck,wnR.wav,-30,landoltCL.png,V1,duckFront.png,frogFront.png,HcongWN,b,30,landoltCBottom.png,,,,,3,35,275,13,,,b,0,1.43489477566,,,2020_Mar_11_1110,59.9503357829,duckFrog,001,16,
duck,wnL.wav,-30,landoltCL.png,V1,duckFront.png,frogFront.png,HinCongWN,h,30,landoltCTop.png,,,,,3,36,276,55,,,b,0,1.20114029081,,,2020_Mar_11_1110,59.9503357829,duckFrog,001,16,
duck,wnL.wav,-30,landoltCL.png,V1,duckFront.png,frogFront.png,HinCongWN,h,30,landoltCTop.png,,,,,3,37,277,71,,,h,0,2.0186230149,,,2020_Mar_11_1110,59.9503357829,duckFrog,001,16,
duck,ribbitL.wav,-30,landoltCR.png,V1,duckFront.png,frogFront.png,HinCong,b,30,landoltCBottom.png,,,,,3,38,278,46,,,b,0,1.28484030504,,,2020_Mar_11_1110,59.9503357829,duckFrog,001,16,
duck,wnL.wav,30,landoltCBottom.png,V1,frogFront.png,duckFront.png,HcongWN,b,-30,landoltCL.png,,,,,3,39,279,57,,,b,0,0.650590746006,,,2020_Mar_11_1110,59.9503357829,duckFrog,001,16,
duck,wnL.wav,-30,landoltCL.png,V1,duckFront.png,frogFront.png,HinCongWN,b,30,landoltCBottom.png,,,,,3,40,280,15,,,b,0,0.667160299054,,,2020_Mar_11_1110,59.9503357829,duckFrog,001,16,
duck,wnR.wav,-30,landoltCL.png,V1,duckFront.png,frogFront.png,HcongWN,h,30,landoltCTop.png,,,,,3,41,281,69,,,h,0,0.767507943327,,,2020_Mar_11_1110,59.9503357829,duckFrog,001,16,
duck,ribbitR.wav,30,landoltCTop.png,V1,frogFront.png,duckFront.png,HinCong,h,-30,landoltCL.png,,,,,3,42,282,50,,,h,0,1.61800037829,,,2020_Mar_11_1110,59.9503357829,duckFrog,001,16,
duck,wnL.wav,30,landoltCTop.png,V1,frogFront.png,duckFront.png,HcongWN,h,-30,landoltCR.png,,,,,3,43,283,1,,,b,0,0.917622896136,,,2020_Mar_11_1110,59.9503357829,duckFrog,001,16,
frog,wnL.wav,30,landoltCTop.png,V1,duckFront.png,frogFront.png,LcongWN,h,-30,landoltCL.png,,,,,3,44,284,25,,,h,0,1.95180266239,,,2020_Mar_11_1110,59.9503357829,duckFrog,001,16,
duck,ribbitR.wav,30,landoltCBottom.png,V1,frogFront.png,duckFront.png,HinCong,b,-30,landoltCR.png,,,,,3,45,285,42,,,b,0,1.36800990882,,,2020_Mar_11_1110,59.9503357829,duckFrog,001,16,
duck,wnR.wav,30,landoltCTop.png,V1,frogFront.png,duckFront.png,HinCongWN,h,-30,landoltCR.png,,,,,3,46,286,3,,,h,0,1.38468246486,,,2020_Mar_11_1110,59.9503357829,duckFrog,001,16,
duck,ribbitR.wav,30,landoltCBottom.png,V1,frogFront.png,duckFront.png,HinCong,b,-30,landoltCR.png,,,,,3,47,287,10,,,b,0,1.66837287524,,,2020_Mar_11_1110,59.9503357829,duckFrog,001,16,
frog,wnL.wav,-30,landoltCR.png,V1,frogFront.png,duckFront.png,LinCongWN,h,30,landoltCTop.png,,,,,3,48,288,31,,,h,0,1.95176600652,,,2020_Mar_11_1110,59.9503357829,duckFrog,001,16,
duck,quackR.wav,-30,landoltCR.png,V1,duckFront.png,frogFront.png,Hcong,b,30,landoltCBottom.png,,,,,3,49,289,60,,,b,0,1.4014074388,,,2020_Mar_11_1110,59.9503357829,duckFrog,001,16,
frog,wnR.wav,-30,landoltCR.png,V1,frogFront.png,duckFront.png,LcongWN,b,30,landoltCBottom.png,,,,,3,50,290,21,,,b,0,1.11788747821,,,2020_Mar_11_1110,59.9503357829,duckFrog,001,16,
duck,ribbitL.wav,-30,landoltCR.png,V1,duckFront.png,frogFront.png,HinCong,b,30,landoltCBottom.png,,,,,3,51,291,78,,,b,0,1.70159299081,,,2020_Mar_11_1110,59.9503357829,duckFrog,001,16,
frog,ribbitR.wav,-30,landoltCL.png,V1,frogFront.png,duckFront.png,Lcong,h,30,landoltCTop.png,,,,,3,52,292,28,,,h,0,1.05115839881,,,2020_Mar_11_1110,59.9503357829,duckFrog,001,16,
duck,wnR.wav,30,landoltCBottom.png,V1,frogFront.png,duckFront.png,HinCongWN,b,-30,landoltCL.png,,,,,3,53,293,59,,,b,0,1.90168309094,,,2020_Mar_11_1110,59.9503357829,duckFrog,001,16,
duck,quackL.wav,30,landoltCBottom.png,V1,frogFront.png,duckFront.png,Hcong,b,-30,landoltCR.png,,,,,3,54,294,72,,,b,0,1.30140839185,,,2020_Mar_11_1110,59.9503357829,duckFrog,001,16,
duck,wnR.wav,-30,landoltCL.png,V1,duckFront.png,frogFront.png,HcongWN,b,30,landoltCBottom.png,,,,,3,55,295,61,,,b,0,1.85137840735,,,2020_Mar_11_1110,59.9503357829,duckFrog,001,16,
duck,wnL.wav,30,landoltCBottom.png,V1,frogFront.png,duckFront.png,HcongWN,b,-30,landoltCL.png,,,,,3,56,296,41,,,b,0,1.13404135369,,,2020_Mar_11_1110,59.9503357829,duckFrog,001,16,
duck,quackL.wav,30,landoltCTop.png,V1,frogFront.png,duckFront.png,Hcong,h,-30,landoltCL.png,,,,,3,57,297,64,,,h,0,0.800883113227,,,2020_Mar_11_1110,59.9503357829,duckFrog,001,16,
duck,wnR.wav,30,landoltCTop.png,V1,frogFront.png,duckFront.png,HinCongWN,h,-30,landoltCR.png,,,,,3,58,298,35,,,h,0,2.26893825539,,,2020_Mar_11_1110,59.9503357829,duckFrog,001,16,
duck,wnL.wav,30,landoltCTop.png,V1,frogFront.png,duckFront.png,HcongWN,h,-30,landoltCR.png,,,,,3,59,299,33,,,h,0,2.01872968348,,,2020_Mar_11_1110,59.9503357829,duckFrog,001,16,
duck,quackR.wav,-30,landoltCR.png,V1,duckFront.png,frogFront.png,Hcong,h,30,landoltCTop.png,,,,,3,60,300,36,,,h,0,1.31747209389,,,2020_Mar_11_1110,59.9503357829,duckFrog,001,16,
frog,wnR.wav,30,landoltCTop.png,V1,duckFront.png,frogFront.png,LinCongWN,h,-30,landoltCL.png,,,,,3,61,301,27,,,h,0,1.4012432205,,,2020_Mar_11_1110,59.9503357829,duckFrog,001,16,
frog,ribbitL.wav,30,landoltCTop.png,V1,duckFront.png,frogFront.png,Lcong,h,-30,landoltCR.png,,,,,3,62,302,24,,,h,0,0.934368030803,,,2020_Mar_11_1110,59.9503357829,duckFrog,001,16,
duck,ribbitL.wav,-30,landoltCR.png,V1,duckFront.png,frogFront.png,HinCong,h,30,landoltCTop.png,,,,,3,63,303,54,,,h,0,1.23454478541,,,2020_Mar_11_1110,59.9503357829,duckFrog,001,16,
frog,wnL.wav,30,landoltCBottom.png,V1,duckFront.png,frogFront.png,LcongWN,b,-30,landoltCR.png,,,,,3,64,304,17,,,b,0,1.50132840874,,,2020_Mar_11_1110,59.9503357829,duckFrog,001,16,
duck,ribbitL.wav,-30,landoltCR.png,V1,duckFront.png,frogFront.png,HinCong,h,30,landoltCTop.png,,,,,3,65,305,38,,,h,0,1.33438437932,,,2020_Mar_11_1110,59.9503357829,duckFrog,001,16,
duck,quackR.wav,-30,landoltCR.png,V1,duckFront.png,frogFront.png,Hcong,b,30,landoltCBottom.png,,,,,3,66,306,44,,,b,0,1.60154005973,,,2020_Mar_11_1110,59.9503357829,duckFrog,001,16,
frog,quackR.wav,30,landoltCTop.png,V1,duckFront.png,frogFront.png,LinCong,h,-30,landoltCR.png,,,,,3,67,307,26,,,h,0,1.18418585113,,,2020_Mar_11_1110,59.9503357829,duckFrog,001,16,
duck,quackR.wav,-30,landoltCR.png,V1,duckFront.png,frogFront.png,Hcong,b,30,landoltCBottom.png,,,,,3,68,308,12,,,b,0,0.884284748665,,,2020_Mar_11_1110,59.9503357829,duckFrog,001,16,
duck,ribbitL.wav,-30,landoltCR.png,V1,duckFront.png,frogFront.png,HinCong,b,30,landoltCBottom.png,,,,,3,69,309,14,,,b,0,0.56755860174,,,2020_Mar_11_1110,59.9503357829,duckFrog,001,16,
frog,quackL.wav,-30,landoltCL.png,V1,frogFront.png,duckFront.png,LinCong,b,30,landoltCBottom.png,,,,,3,70,310,22,,,b,0,0.533964596294,,,2020_Mar_11_1110,59.9503357829,duckFrog,001,16,
duck,quackL.wav,30,landoltCBottom.png,V1,frogFront.png,duckFront.png,Hcong,b,-30,landoltCR.png,,,,,3,71,311,8,,,b,0,0.416775778975,,,2020_Mar_11_1110,59.9503357829,duckFrog,001,16,
frog,quackR.wav,30,landoltCBottom.png,V1,duckFront.png,frogFront.png,LinCong,b,-30,landoltCL.png,,,,,3,72,312,18,,,b,0,1.2011945415,,,2020_Mar_11_1110,59.9503357829,duckFrog,001,16,
duck,wnL.wav,-30,landoltCL.png,V1,duckFront.png,frogFront.png,HinCongWN,h,30,landoltCTop.png,,,,,3,73,313,7,,,h,0,1.38464764178,,,2020_Mar_11_1110,59.9503357829,duckFrog,001,16,
duck,ribbitL.wav,-30,landoltCR.png,V1,duckFront.png,frogFront.png,HinCong,h,30,landoltCTop.png,,,,,3,74,314,70,,,h,0,0.884253224617,,,2020_Mar_11_1110,59.9503357829,duckFrog,001,16,
duck,wnL.wav,-30,landoltCL.png,V1,duckFront.png,frogFront.png,HinCongWN,b,30,landoltCBottom.png,,,,,3,75,315,79,,,b,0,0.81778183599,,,2020_Mar_11_1110,59.9503357829,duckFrog,001,16,
duck,quackL.wav,30,landoltCBottom.png,V1,frogFront.png,duckFront.png,Hcong,b,-30,landoltCR.png,,,,,3,76,316,56,,,b,0,1.26748998195,,,2020_Mar_11_1110,59.9503357829,duckFrog,001,16,
frog,wnR.wav,-30,landoltCR.png,V1,frogFront.png,duckFront.png,LcongWN,h,30,landoltCTop.png,,,,,3,77,317,29,,,h,0,1.13422719895,,,2020_Mar_11_1110,59.9503357829,duckFrog,001,16,
duck,ribbitR.wav,30,landoltCTop.png,V1,frogFront.png,duckFront.png,HinCong,h,-30,landoltCL.png,,,,,3,78,318,34,,,h,0,1.40106104082,,,2020_Mar_11_1110,59.9503357829,duckFrog,001,16,
duck,ribbitR.wav,30,landoltCBottom.png,V1,frogFront.png,duckFront.png,HinCong,b,-30,landoltCR.png,,,,,3,79,319,58,,,b,0,0.617408752541,,,2020_Mar_11_1110,59.9503357829,duckFrog,001,16,
duck,wnL.wav,-30,landoltCL.png,V1,duckFront.png,frogFront.png,HinCongWN,b,30,landoltCBottom.png,,,,,4,0,320,79,,,b,0,0.766442723737,,,2020_Mar_11_1110,59.9503357829,duckFrog,001,16,
frog,wnR.wav,30,landoltCTop.png,V1,duckFront.png,frogFront.png,LinCongWN,h,-30,landoltCL.png,,,,,4,1,321,27,,,h,0,1.23444251553,,,2020_Mar_11_1110,59.9503357829,duckFrog,001,16,
duck,wnL.wav,30,landoltCTop.png,V1,frogFront.png,duckFront.png,HcongWN,h,-30,landoltCR.png,,,,,4,2,322,33,,,h,0,1.38475870907,,,2020_Mar_11_1110,59.9503357829,duckFrog,001,16,
frog,quackL.wav,-30,landoltCL.png,V1,frogFront.png,duckFront.png,LinCong,h,30,landoltCTop.png,,,,,4,3,323,30,,,h,0,0.80061405914,,,2020_Mar_11_1110,59.9503357829,duckFrog,001,16,
duck,ribbitL.wav,-30,landoltCR.png,V1,duckFront.png,frogFront.png,HinCong,b,30,landoltCBottom.png,,,,,4,4,324,62,,,b,0,0.834164077541,,,2020_Mar_11_1110,59.9503357829,duckFrog,001,16,
duck,quackL.wav,30,landoltCTop.png,V1,frogFront.png,duckFront.png,Hcong,h,-30,landoltCL.png,,,,,4,5,325,0,,,h,0,1.31872865712,,,2020_Mar_11_1110,59.9503357829,duckFrog,001,16,
frog,ribbitR.wav,-30,landoltCL.png,V1,frogFront.png,duckFront.png,Lcong,b,30,landoltCBottom.png,,,,,4,6,326,20,,,b,0,1.15088179362,,,2020_Mar_11_1110,59.9503357829,duckFrog,001,16,
duck,wnL.wav,30,landoltCTop.png,V1,frogFront.png,duckFront.png,HcongWN,h,-30,landoltCR.png,,,,,4,7,327,1,,,h,0,1.25067446801,,,2020_Mar_11_1110,59.9503357829,duckFrog,001,16,
duck,quackR.wav,-30,landoltCR.png,V1,duckFront.png,frogFront.png,Hcong,h,30,landoltCTop.png,,,,,4,8,328,36,,,h,0,0.616886772949,,,2020_Mar_11_1110,59.9503357829,duckFrog,001,16,
duck,quackR.wav,-30,landoltCR.png,V1,duckFront.png,frogFront.png,Hcong,h,30,landoltCTop.png,,,,,4,9,329,68,,,h,0,0.634045019274,,,2020_Mar_11_1110,59.9503357829,duckFrog,001,16,
frog,ribbitL.wav,30,landoltCBottom.png,V1,duckFront.png,frogFront.png,Lcong,b,-30,landoltCL.png,,,,,4,10,330,16,,,b,0,0.730422466237,,,2020_Mar_11_1110,59.9503357829,duckFrog,001,16,
duck,wnR.wav,30,landoltCTop.png,V1,frogFront.png,duckFront.png,HinCongWN,h,-30,landoltCR.png,,,,,4,11,331,3,,,h,0,0.684218108293,,,2020_Mar_11_1110,59.9503357829,duckFrog,001,16,
duck,wnR.wav,-30,landoltCL.png,V1,duckFront.png,frogFront.png,HcongWN,h,30,landoltCTop.png,,,,,4,12,332,53,,,h,0,1.06767370117,,,2020_Mar_11_1110,59.9503357829,duckFrog,001,16,
duck,quackR.wav,-30,landoltCR.png,V1,duckFront.png,frogFront.png,Hcong,b,30,landoltCBottom.png,,,,,4,13,333,60,,,b,0,1.00102379846,,,2020_Mar_11_1110,59.9503357829,duckFrog,001,16,
duck,quackL.wav,30,landoltCTop.png,V1,frogFront.png,duckFront.png,Hcong,h,-30,landoltCL.png,,,,,4,14,334,64,,,h,0,1.026541416,,,2020_Mar_11_1110,59.9503357829,duckFrog,001,16,
frog,wnL.wav,30,landoltCTop.png,V1,duckFront.png,frogFront.png,LcongWN,h,-30,landoltCL.png,,,,,4,15,335,25,,,h,0,1.30126396772,,,2020_Mar_11_1110,59.9503357829,duckFrog,001,16,
duck,wnL.wav,30,landoltCBottom.png,V1,frogFront.png,duckFront.png,HcongWN,b,-30,landoltCL.png,,,,,4,16,336,57,,,b,0,1.11775148493,,,2020_Mar_11_1110,59.9503357829,duckFrog,001,16,
duck,ribbitR.wav,30,landoltCTop.png,V1,frogFront.png,duckFront.png,HinCong,h,-30,landoltCL.png,,,,,4,17,337,34,,,h,0,0.767500612153,,,2020_Mar_11_1110,59.9503357829,duckFrog,001,16,
duck,wnR.wav,-30,landoltCL.png,V1,duckFront.png,frogFront.png,HcongWN,b,30,landoltCBottom.png,,,,,4,18,338,45,,,b,0,0.75245007837,,,2020_Mar_11_1110,59.9503357829,duckFrog,001,16,
frog,wnR.wav,-30,landoltCR.png,V1,frogFront.png,duckFront.png,LcongWN,h,30,landoltCTop.png,,,,,4,19,339,29,,,h,0,0.984556881846,,,2020_Mar_11_1110,59.9503357829,duckFrog,001,16,
duck,wnR.wav,30,landoltCTop.png,V1,frogFront.png,duckFront.png,HinCongWN,h,-30,landoltCR.png,,,,,4,20,340,35,,,h,0,1.18418658425,,,2020_Mar_11_1110,59.9503357829,duckFrog,001,16,
duck,wnR.wav,-30,landoltCL.png,V1,duckFront.png,frogFront.png,HcongWN,b,30,landoltCBottom.png,,,,,4,21,341,13,,,h,0,0.934090179306,,,2020_Mar_11_1110,59.9503357829,duckFrog,001,16,
duck,wnR.wav,-30,landoltCL.png,V1,duckFront.png,frogFront.png,HcongWN,h,30,landoltCTop.png,,,,,4,22,342,69,,,h,0,0.817525244898,,,2020_Mar_11_1110,59.9503357829,duckFrog,001,16,
duck,ribbitR.wav,30,landoltCBottom.png,V1,frogFront.png,duckFront.png,HinCong,b,-30,landoltCR.png,,,,,4,23,343,58,,,b,0,1.25083978599,,,2020_Mar_11_1110,59.9503357829,duckFrog,001,16,
frog,quackR.wav,30,landoltCBottom.png,V1,duckFront.png,frogFront.png,LinCong,b,-30,landoltCL.png,,,,,4,24,344,18,,,b,0,0.717491374873,,,2020_Mar_11_1110,59.9503357829,duckFrog,001,16,
duck,wnL.wav,30,landoltCBottom.png,V1,frogFront.png,duckFront.png,HcongWN,b,-30,landoltCL.png,,,,,4,25,345,73,,,b,0,0.7841438435,,,2020_Mar_11_1110,59.9503357829,duckFrog,001,16,
duck,wnR.wav,30,landoltCBottom.png,V1,frogFront.png,duckFront.png,HinCongWN,b,-30,landoltCL.png,,,,,4,26,346,11,,,b,0,0.634487089069,,,2020_Mar_11_1110,59.9503357829,duckFrog,001,16,
duck,wnR.wav,-30,landoltCL.png,V1,duckFront.png,frogFront.png,HcongWN,h,30,landoltCTop.png,,,,,4,27,347,5,,,h,0,1.38461795053,,,2020_Mar_11_1110,59.9503357829,duckFrog,001,16,
duck,ribbitR.wav,30,landoltCBottom.png,V1,frogFront.png,duckFront.png,HinCong,b,-30,landoltCR.png,,,,,4,28,348,74,,,b,0,1.65131543256,,,2020_Mar_11_1110,59.9503357829,duckFrog,001,16,
duck,quackR.wav,-30,landoltCR.png,V1,duckFront.png,frogFront.png,Hcong,b,30,landoltCBottom.png,,,,,4,29,349,44,,,b,0,1.05097768537,,,2020_Mar_11_1110,59.9503357829,duckFrog,001,16,
duck,ribbitR.wav,30,landoltCTop.png,V1,frogFront.png,duckFront.png,HinCong,h,-30,landoltCL.png,,,,,4,30,350,50,,,h,0,1.76828798025,,,2020_Mar_11_1110,59.9503357829,duckFrog,001,16,
duck,ribbitR.wav,30,landoltCBottom.png,V1,frogFront.png,duckFront.png,HinCong,b,-30,landoltCR.png,,,,,4,31,351,42,,,b,0,1.03440410018,,,2020_Mar_11_1110,59.9503357829,duckFrog,001,16,
duck,wnL.wav,-30,landoltCL.png,V1,duckFront.png,frogFront.png,HinCongWN,h,30,landoltCTop.png,,,,,4,32,352,55,,,h,0,1.18422580603,,,2020_Mar_11_1110,59.9503357829,duckFrog,001,16,
duck,quackR.wav,-30,landoltCR.png,V1,duckFront.png,frogFront.png,Hcong,h,30,landoltCTop.png,,,,,4,33,353,4,,,h,0,1.30140179379,,,2020_Mar_11_1110,59.9503357829,duckFrog,001,16,
frog,wnL.wav,-30,landoltCR.png,V1,frogFront.png,duckFront.png,LinCongWN,b,30,landoltCBottom.png,,,,,4,34,354,23,,,b,0,0.752803074402,,,2020_Mar_11_1110,59.9503357829,duckFrog,001,16,
duck,wnR.wav,30,landoltCTop.png,V1,frogFront.png,duckFront.png,HinCongWN,h,-30,landoltCR.png,,,,,4,35,355,67,,,h,0,1.1509254141,,,2020_Mar_11_1110,59.9503357829,duckFrog,001,16,
frog,wnL.wav,30,landoltCBottom.png,V1,duckFront.png,frogFront.png,LcongWN,b,-30,landoltCR.png,,,,,4,36,356,17,,,b,0,0.900941542684,,,2020_Mar_11_1110,59.9503357829,duckFrog,001,16,
frog,ribbitR.wav,-30,landoltCL.png,V1,frogFront.png,duckFront.png,Lcong,h,30,landoltCTop.png,,,,,4,37,357,28,,,h,0,0.583500239729,,,2020_Mar_11_1110,59.9503357829,duckFrog,001,16,
duck,wnR.wav,-30,landoltCL.png,V1,duckFront.png,frogFront.png,HcongWN,h,30,landoltCTop.png,,,,,4,38,358,37,,,h,0,0.684333207726,,,2020_Mar_11_1110,59.9503357829,duckFrog,001,16,
duck,wnL.wav,30,landoltCTop.png,V1,frogFront.png,duckFront.png,HcongWN,h,-30,landoltCR.png,,,,,4,39,359,65,,,h,0,1.06728698174,,,2020_Mar_11_1110,59.9503357829,duckFrog,001,16,
duck,wnR.wav,-30,landoltCL.png,V1,duckFront.png,frogFront.png,HcongWN,b,30,landoltCBottom.png,,,,,4,40,360,61,,,b,0,0.750516481213,,,2020_Mar_11_1110,59.9503357829,duckFrog,001,16,
duck,wnL.wav,-30,landoltCL.png,V1,duckFront.png,frogFront.png,HinCongWN,h,30,landoltCTop.png,,,,,4,41,361,7,,,h,0,1.16797589217,,,2020_Mar_11_1110,59.9503357829,duckFrog,001,16,
frog,wnR.wav,-30,landoltCR.png,V1,frogFront.png,duckFront.png,LcongWN,b,30,landoltCBottom.png,,,,,4,42,362,21,,,b,0,1.01767802656,,,2020_Mar_11_1110,59.9503357829,duckFrog,001,16,
duck,quackL.wav,30,landoltCBottom.png,V1,frogFront.png,duckFront.png,Hcong,b,-30,landoltCR.png,,,,,4,43,363,56,,,b,0,1.31770595834,,,2020_Mar_11_1110,59.9503357829,duckFrog,001,16,
duck,ribbitR.wav,30,landoltCTop.png,V1,frogFront.png,duckFront.png,HinCong,h,-30,landoltCL.png,,,,,4,44,364,66,,,h,0,1.5013918234,,,2020_Mar_11_1110,59.9503357829,duckFrog,001,16,
duck,ribbitL.wav,-30,landoltCR.png,V1,duckFront.png,frogFront.png,HinCong,h,30,landoltCTop.png,,,,,4,45,365,6,,,h,0,0.550430413229,,,2020_Mar_11_1110,59.9503357829,duckFrog,001,16,
duck,quackL.wav,30,landoltCBottom.png,V1,frogFront.png,duckFront.png,Hcong,b,-30,landoltCR.png,,,,,4,46,366,8,,,b,0,0.867200547199,,,2020_Mar_11_1110,59.9503357829,duckFrog,001,16,
duck,ribbitL.wav,-30,landoltCR.png,V1,duckFront.png,frogFront.png,HinCong,b,30,landoltCBottom.png,,,,,4,47,367,78,,,b,0,1.30096888796,,,2020_Mar_11_1110,59.9503357829,duckFrog,001,16,
duck,ribbitL.wav,-30,landoltCR.png,V1,duckFront.png,frogFront.png,HinCong,h,30,landoltCTop.png,,,,,4,48,368,70,,,h,0,3.16957921993,,,2020_Mar_11_1110,59.9503357829,duckFrog,001,16,
duck,wnR.wav,30,landoltCBottom.png,V1,frogFront.png,duckFront.png,HinCongWN,b,-30,landoltCL.png,,,,,4,49,369,43,,,b,0,0.745079315972,,,2020_Mar_11_1110,59.9503357829,duckFrog,001,16,
duck,quackR.wav,-30,landoltCR.png,V1,duckFront.png,frogFront.png,Hcong,h,30,landoltCTop.png,,,,,4,50,370,52,,,h,0,0.783735497105,,,2020_Mar_11_1110,59.9503357829,duckFrog,001,16,
duck,quackL.wav,30,landoltCBottom.png,V1,frogFront.png,duckFront.png,Hcong,b,-30,landoltCR.png,,,,,4,51,371,40,,,b,0,0.700774098668,,,2020_Mar_11_1110,59.9503357829,duckFrog,001,16,
duck,wnR.wav,30,landoltCBottom.png,V1,frogFront.png,duckFront.png,HinCongWN,b,-30,landoltCL.png,,,,,4,52,372,59,,,b,0,1.21767465423,,,2020_Mar_11_1110,59.9503357829,duckFrog,001,16,
duck,wnL.wav,30,landoltCTop.png,V1,frogFront.png,duckFront.png,HcongWN,h,-30,landoltCR.png,,,,,4,53,373,49,,,h,0,1.03456208698,,,2020_Mar_11_1110,59.9503357829,duckFrog,001,16,
duck,wnL.wav,-30,landoltCL.png,V1,duckFront.png,frogFront.png,HinCongWN,b,30,landoltCBottom.png,,,,,4,54,374,63,,,b,0,0.900875195559,,,2020_Mar_11_1110,59.9503357829,duckFrog,001,16,
duck,ribbitL.wav,-30,landoltCR.png,V1,duckFront.png,frogFront.png,HinCong,b,30,landoltCBottom.png,,,,,4,55,375,14,,,b,0,1.68488487857,,,2020_Mar_11_1110,59.9503357829,duckFrog,001,16,
duck,ribbitR.wav,30,landoltCBottom.png,V1,frogFront.png,duckFront.png,HinCong,b,-30,landoltCR.png,,,,,4,56,376,10,,,b,0,1.18422287356,,,2020_Mar_11_1110,59.9503357829,duckFrog,001,16,
frog,wnL.wav,-30,landoltCR.png,V1,frogFront.png,duckFront.png,LinCongWN,h,30,landoltCTop.png,,,,,4,57,377,31,,,h,0,1.08388366013,,,2020_Mar_11_1110,59.9503357829,duckFrog,001,16,
duck,wnL.wav,-30,landoltCL.png,V1,duckFront.png,frogFront.png,HinCongWN,h,30,landoltCTop.png,,,,,4,58,378,39,,,h,0,1.33478906013,,,2020_Mar_11_1110,59.9503357829,duckFrog,001,16,
duck,wnL.wav,-30,landoltCL.png,V1,duckFront.png,frogFront.png,HinCongWN,h,30,landoltCTop.png,,,,,4,59,379,71,,,h,0,0.817536608218,,,2020_Mar_11_1110,59.9503357829,duckFrog,001,16,
duck,ribbitL.wav,-30,landoltCR.png,V1,duckFront.png,frogFront.png,HinCong,b,30,landoltCBottom.png,,,,,4,60,380,46,,,h,0,1.03458811265,,,2020_Mar_11_1110,59.9503357829,duckFrog,001,16,
duck,quackL.wav,30,landoltCBottom.png,V1,frogFront.png,duckFront.png,Hcong,b,-30,landoltCR.png,,,,,4,61,381,72,,,b,0,0.750613252711,,,2020_Mar_11_1110,59.9503357829,duckFrog,001,16,
duck,quackR.wav,-30,landoltCR.png,V1,duckFront.png,frogFront.png,Hcong,b,30,landoltCBottom.png,,,,,4,62,382,12,,,b,0,0.733846857639,,,2020_Mar_11_1110,59.9503357829,duckFrog,001,16,
duck,wnR.wav,-30,landoltCL.png,V1,duckFront.png,frogFront.png,HcongWN,b,30,landoltCBottom.png,,,,,4,63,383,77,,,b,0,1.36831488566,,,2020_Mar_11_1110,59.9503357829,duckFrog,001,16,
duck,wnL.wav,-30,landoltCL.png,V1,duckFront.png,frogFront.png,HinCongWN,b,30,landoltCBottom.png,,,,,4,64,384,15,,,b,0,1.38474917854,,,2020_Mar_11_1110,59.9503357829,duckFrog,001,16,
duck,ribbitL.wav,-30,landoltCR.png,V1,duckFront.png,frogFront.png,HinCong,h,30,landoltCTop.png,,,,,4,65,385,38,,,h,0,1.41238220636,,,2020_Mar_11_1110,59.9503357829,duckFrog,001,16,
duck,wnL.wav,-30,landoltCL.png,V1,duckFront.png,frogFront.png,HinCongWN,b,30,landoltCBottom.png,,,,,4,66,386,47,,,b,0,1.33467029511,,,2020_Mar_11_1110,59.9503357829,duckFrog,001,16,
duck,ribbitL.wav,-30,landoltCR.png,V1,duckFront.png,frogFront.png,HinCong,h,30,landoltCTop.png,,,,,4,67,387,54,,,h,0,0.500636712466,,,2020_Mar_11_1110,59.9503357829,duckFrog,001,16,
duck,ribbitR.wav,30,landoltCTop.png,V1,frogFront.png,duckFront.png,HinCong,h,-30,landoltCL.png,,,,,4,68,388,2,,,h,0,1.05082446383,,,2020_Mar_11_1110,59.9503357829,duckFrog,001,16,
duck,wnL.wav,30,landoltCBottom.png,V1,frogFront.png,duckFront.png,HcongWN,b,-30,landoltCL.png,,,,,4,69,389,9,,,b,0,0.78439823524,,,2020_Mar_11_1110,59.9503357829,duckFrog,001,16,
duck,quackR.wav,-30,landoltCR.png,V1,duckFront.png,frogFront.png,Hcong,b,30,landoltCBottom.png,,,,,4,70,390,76,,,b,0,1.70137378871,,,2020_Mar_11_1110,59.9503357829,duckFrog,001,16,
frog,quackL.wav,-30,landoltCL.png,V1,frogFront.png,duckFront.png,LinCong,b,30,landoltCBottom.png,,,,,4,71,391,22,,,b,0,1.44915280953,,,2020_Mar_11_1110,59.9503357829,duckFrog,001,16,
frog,quackR.wav,30,landoltCTop.png,V1,duckFront.png,frogFront.png,LinCong,h,-30,landoltCR.png,,,,,4,72,392,26,,,h,0,2.60205764062,,,2020_Mar_11_1110,59.9503357829,duckFrog,001,16,
duck,quackL.wav,30,landoltCTop.png,V1,frogFront.png,duckFront.png,Hcong,h,-30,landoltCL.png,,,,,4,73,393,48,,,h,0,0.650669922686,,,2020_Mar_11_1110,59.9503357829,duckFrog,001,16,
duck,wnL.wav,30,landoltCBottom.png,V1,frogFront.png,duckFront.png,HcongWN,b,-30,landoltCL.png,,,,,4,74,394,41,,,b,0,0.734328149216,,,2020_Mar_11_1110,59.9503357829,duckFrog,001,16,
duck,wnR.wav,30,landoltCBottom.png,V1,frogFront.png,duckFront.png,HinCongWN,b,-30,landoltCL.png,,,,,4,75,395,75,,,b,0,0.600962729778,,,2020_Mar_11_1110,59.9503357829,duckFrog,001,16,
frog,wnR.wav,30,landoltCBottom.png,V1,duckFront.png,frogFront.png,LinCongWN,b,-30,landoltCR.png,,,,,4,76,396,19,,,b,0,0.784260775727,,,2020_Mar_11_1110,59.9503357829,duckFrog,001,16,
frog,ribbitL.wav,30,landoltCTop.png,V1,duckFront.png,frogFront.png,Lcong,h,-30,landoltCR.png,,,,,4,77,397,24,,,h,0,1.11773718914,,,2020_Mar_11_1110,59.9503357829,duckFrog,001,16,
duck,quackL.wav,30,landoltCTop.png,V1,frogFront.png,duckFront.png,Hcong,h,-30,landoltCL.png,,,,,4,78,398,32,,,h,0,2.43552489007,,,2020_Mar_11_1110,59.9503357829,duckFrog,001,16,
duck,wnR.wav,30,landoltCTop.png,V1,frogFront.png,duckFront.png,HinCongWN,h,-30,landoltCR.png,,,,,4,79,399,51,,,h,0,0.533804410142,,,2020_Mar_11_1110,59.9503357829,duckFrog,001,16,
duck,wnR.wav,30,landoltCTop.png,V1,frogFront.png,duckFront.png,HinCongWN,h,-30,landoltCR.png,,,,,5,0,400,51,,,h,0,0.700809288304,,,2020_Mar_11_1110,59.9503357829,duckFrog,001,16,
frog,quackL.wav,-30,landoltCL.png,V1,frogFront.png,duckFront.png,LinCong,b,30,landoltCBottom.png,,,,,5,1,401,22,,,b,0,1.25100693676,,,2020_Mar_11_1110,59.9503357829,duckFrog,001,16,
duck,quackR.wav,-30,landoltCR.png,V1,duckFront.png,frogFront.png,Hcong,h,30,landoltCTop.png,,,,,5,2,402,68,,,h,0,1.21809583018,,,2020_Mar_11_1110,59.9503357829,duckFrog,001,16,
duck,quackL.wav,30,landoltCBottom.png,V1,frogFront.png,duckFront.png,Hcong,b,-30,landoltCR.png,,,,,5,3,403,72,,,b,0,1.3676682761,,,2020_Mar_11_1110,59.9503357829,duckFrog,001,16,
duck,ribbitL.wav,-30,landoltCR.png,V1,duckFront.png,frogFront.png,HinCong,b,30,landoltCBottom.png,,,,,5,4,404,62,,,b,0,1.26744966049,,,2020_Mar_11_1110,59.9503357829,duckFrog,001,16,
duck,wnL.wav,-30,landoltCL.png,V1,duckFront.png,frogFront.png,HinCongWN,b,30,landoltCBottom.png,,,,,5,5,405,63,,,b,0,1.21773110427,,,2020_Mar_11_1110,59.9503357829,duckFrog,001,16,
frog,wnR.wav,30,landoltCBottom.png,V1,duckFront.png,frogFront.png,LinCongWN,b,-30,landoltCR.png,,,,,5,6,406,19,,,b,0,1.06770412554,,,2020_Mar_11_1110,59.9503357829,duckFrog,001,16,
duck,quackR.wav,-30,landoltCR.png,V1,duckFront.png,frogFront.png,Hcong,h,30,landoltCTop.png,,,,,5,7,407,52,,,h,0,1.20112196288,,,2020_Mar_11_1110,59.9503357829,duckFrog,001,16,
duck,ribbitR.wav,30,landoltCBottom.png,V1,frogFront.png,duckFront.png,HinCong,b,-30,landoltCR.png,,,,,5,8,408,74,,,b,0,0.650738102605,,,2020_Mar_11_1110,59.9503357829,duckFrog,001,16,
frog,wnR.wav,30,landoltCTop.png,V1,duckFront.png,frogFront.png,LinCongWN,h,-30,landoltCL.png,,,,,5,9,409,27,,,h,0,0.667558748363,,,2020_Mar_11_1110,59.9503357829,duckFrog,001,16,
duck,ribbitR.wav,30,landoltCBottom.png,V1,frogFront.png,duckFront.png,HinCong,b,-30,landoltCR.png,,,,,5,10,410,10,,,b,0,0.72830485661,,,2020_Mar_11_1110,59.9503357829,duckFrog,001,16,
duck,wnR.wav,-30,landoltCL.png,V1,duckFront.png,frogFront.png,HcongWN,b,30,landoltCBottom.png,,,,,5,11,411,61,,,b,0,0.683855215177,,,2020_Mar_11_1110,59.9503357829,duckFrog,001,16,
duck,wnL.wav,30,landoltCTop.png,V1,frogFront.png,duckFront.png,HcongWN,h,-30,landoltCR.png,,,,,5,12,412,49,,,h,0,0.767059642034,,,2020_Mar_11_1110,59.9503357829,duckFrog,001,16,
duck,quackR.wav,-30,landoltCR.png,V1,duckFront.png,frogFront.png,Hcong,b,30,landoltCBottom.png,,,,,5,13,413,12,,,b,0,1.1007636884,,,2020_Mar_11_1110,59.9503357829,duckFrog,001,16,
duck,ribbitR.wav,30,landoltCTop.png,V1,frogFront.png,duckFront.png,HinCong,h,-30,landoltCL.png,,,,,5,14,414,34,,,h,0,0.917218948445,,,2020_Mar_11_1110,59.9503357829,duckFrog,001,16,
duck,quackR.wav,-30,landoltCR.png,V1,duckFront.png,frogFront.png,Hcong,b,30,landoltCBottom.png,,,,,5,15,415,44,,,b,0,1.18442997922,,,2020_Mar_11_1110,59.9503357829,duckFrog,001,16,
duck,quackR.wav,-30,landoltCR.png,V1,duckFront.png,frogFront.png,Hcong,b,30,landoltCBottom.png,,,,,5,16,416,76,,,b,0,1.33455739503,,,2020_Mar_11_1110,59.9503357829,duckFrog,001,16,
duck,wnR.wav,30,landoltCBottom.png,V1,frogFront.png,duckFront.png,HinCongWN,b,-30,landoltCL.png,,,,,5,17,417,75,,,b,0,1.00077380542,,,2020_Mar_11_1110,59.9503357829,duckFrog,001,16,
duck,wnR.wav,30,landoltCTop.png,V1,frogFront.png,duckFront.png,HinCongWN,h,-30,landoltCR.png,,,,,5,18,418,67,,,h,0,1.15116111135,,,2020_Mar_11_1110,59.9503357829,duckFrog,001,16,
duck,ribbitR.wav,30,landoltCBottom.png,V1,frogFront.png,duckFront.png,HinCong,b,-30,landoltCR.png,,,,,5,19,419,42,,,b,0,0.534028377509,,,2020_Mar_11_1110,59.9503357829,duckFrog,001,16,
duck,wnL.wav,-30,landoltCL.png,V1,duckFront.png,frogFront.png,HinCongWN,b,30,landoltCBottom.png,,,,,5,20,420,15,,,b,0,1.06781775874,,,2020_Mar_11_1110,59.9503357829,duckFrog,001,16,
duck,wnL.wav,30,landoltCTop.png,V1,frogFront.png,duckFront.png,HcongWN,h,-30,landoltCR.png,,,,,5,21,421,33,,,h,0,1.1882513537,,,2020_Mar_11_1110,59.9503357829,duckFrog,001,16,
duck,wnR.wav,-30,landoltCL.png,V1,duckFront.png,frogFront.png,HcongWN,h,30,landoltCTop.png,,,,,5,22,422,5,,,h,0,1.16750449768,,,2020_Mar_11_1110,59.9503357829,duckFrog,001,16,
duck,wnR.wav,30,landoltCBottom.png,V1,frogFront.png,duckFront.png,HinCongWN,b,-30,landoltCL.png,,,,,5,23,423,43,,,b,0,1.15089498973,,,2020_Mar_11_1110,59.9503357829,duckFrog,001,16,
frog,ribbitR.wav,-30,landoltCL.png,V1,frogFront.png,duckFront.png,Lcong,b,30,landoltCBottom.png,,,,,5,24,424,20,,,b,0,1.36788784477,,,2020_Mar_11_1110,59.9503357829,duckFrog,001,16,
duck,wnL.wav,30,landoltCTop.png,V1,frogFront.png,duckFront.png,HcongWN,h,-30,landoltCR.png,,,,,5,25,425,65,,,h,0,1.21757421714,,,2020_Mar_11_1110,59.9503357829,duckFrog,001,16,
duck,quackL.wav,30,landoltCBottom.png,V1,frogFront.png,duckFront.png,Hcong,b,-30,landoltCR.png,,,,,5,26,426,40,,,b,0,0.800992714279,,,2020_Mar_11_1110,59.9503357829,duckFrog,001,16,
duck,quackL.wav,30,landoltCTop.png,V1,frogFront.png,duckFront.png,Hcong,h,-30,landoltCL.png,,,,,5,27,427,64,,,h,0,0.684074783841,,,2020_Mar_11_1110,59.9503357829,duckFrog,001,16,
frog,wnL.wav,30,landoltCBottom.png,V1,duckFront.png,frogFront.png,LcongWN,b,-30,landoltCR.png,,,,,5,28,428,17,,,b,0,1.30143331784,,,2020_Mar_11_1110,59.9503357829,duckFrog,001,16,
frog,ribbitL.wav,30,landoltCTop.png,V1,duckFront.png,frogFront.png,Lcong,h,-30,landoltCR.png,,,,,5,29,429,24,,,h,0,0.684145163112,,,2020_Mar_11_1110,59.9503357829,duckFrog,001,16,
duck,wnL.wav,-30,landoltCL.png,V1,duckFront.png,frogFront.png,HinCongWN,b,30,landoltCBottom.png,,,,,5,30,430,47,,,b,0,1.38455013717,,,2020_Mar_11_1110,59.9503357829,duckFrog,001,16,
duck,quackL.wav,30,landoltCTop.png,V1,frogFront.png,duckFront.png,Hcong,h,-30,landoltCL.png,,,,,5,31,431,48,,,h,0,1.08392434815,,,2020_Mar_11_1110,59.9503357829,duckFrog,001,16,
duck,wnL.wav,30,landoltCBottom.png,V1,frogFront.png,duckFront.png,HcongWN,b,-30,landoltCL.png,,,,,5,32,432,41,,,b,0,1.11779363918,,,2020_Mar_11_1110,59.9503357829,duckFrog,001,16,
duck,wnL.wav,-30,landoltCL.png,V1,duckFront.png,frogFront.png,HinCongWN,h,30,landoltCTop.png,,,,,5,33,433,71,,,h,0,0.567091605953,,,2020_Mar_11_1110,59.9503357829,duckFrog,001,16,
duck,wnL.wav,30,landoltCBottom.png,V1,frogFront.png,duckFront.png,HcongWN,b,-30,landoltCL.png,,,,,5,34,434,9,,,b,0,1.48444508144,,,2020_Mar_11_1110,59.9503357829,duckFrog,001,16,
duck,ribbitR.wav,30,landoltCTop.png,V1,frogFront.png,duckFront.png,HinCong,h,-30,landoltCL.png,,,,,5,35,435,2,,,h,0,1.30145384513,,,2020_Mar_11_1110,59.9503357829,duckFrog,001,16,
duck,wnR.wav,-30,landoltCL.png,V1,duckFront.png,frogFront.png,HcongWN,b,30,landoltCBottom.png,,,,,5,36,436,77,,,b,0,1.16762472893,,,2020_Mar_11_1110,59.9503357829,duckFrog,001,16,
duck,wnR.wav,30,landoltCTop.png,V1,frogFront.png,duckFront.png,HinCongWN,h,-30,landoltCR.png,,,,,5,37,437,3,,,h,0,0.567076577046,,,2020_Mar_11_1110,59.9503357829,duckFrog,001,16,
duck,quackR.wav,-30,landoltCR.png,V1,duckFront.png,frogFront.png,Hcong,b,30,landoltCBottom.png,,,,,5,38,438,60,,,b,0,1.10112841431,,,2020_Mar_11_1110,59.9503357829,duckFrog,001,16,
duck,wnL.wav,-30,landoltCL.png,V1,duckFront.png,frogFront.png,HinCongWN,h,30,landoltCTop.png,,,,,5,39,439,7,,,h,0,0.567333534696,,,2020_Mar_11_1110,59.9503357829,duckFrog,001,16,
frog,wnR.wav,-30,landoltCR.png,V1,frogFront.png,duckFront.png,LcongWN,b,30,landoltCBottom.png,,,,,5,40,440,21,,,b,0,0.734171995208,,,2020_Mar_11_1110,59.9503357829,duckFrog,001,16,
duck,wnL.wav,30,landoltCBottom.png,V1,frogFront.png,duckFront.png,HcongWN,b,-30,landoltCL.png,,,,,5,41,441,57,,,b,0,1.21744335568,,,2020_Mar_11_1110,59.9503357829,duckFrog,001,16,
frog,wnR.wav,-30,landoltCR.png,V1,frogFront.png,duckFront.png,LcongWN,h,30,landoltCTop.png,,,,,5,42,442,29,,,h,0,0.567128994941,,,2020_Mar_11_1110,59.9503357829,duckFrog,001,16,
duck,ribbitL.wav,-30,landoltCR.png,V1,duckFront.png,frogFront.png,HinCong,b,30,landoltCBottom.png,,,,,5,43,443,46,,,b,0,0.784238415646,,,2020_Mar_11_1110,59.9503357829,duckFrog,001,16,
frog,wnL.wav,-30,landoltCR.png,V1,frogFront.png,duckFront.png,LinCongWN,h,30,landoltCTop.png,,,,,5,44,444,31,,,h,0,0.617620990031,,,2020_Mar_11_1110,59.9503357829,duckFrog,001,16,
frog,quackR.wav,30,landoltCBottom.png,V1,duckFront.png,frogFront.png,LinCong,b,-30,landoltCL.png,,,,,5,45,445,18,,,b,0,0.667212716948,,,2020_Mar_11_1110,59.9503357829,duckFrog,001,16,
duck,ribbitR.wav,30,landoltCBottom.png,V1,frogFront.png,duckFront.png,HinCong,b,-30,landoltCR.png,,,,,5,46,446,58,,,b,0,2.65239348171,,,2020_Mar_11_1110,59.9503357829,duckFrog,001,16,
duck,wnR.wav,30,landoltCBottom.png,V1,frogFront.png,duckFront.png,HinCongWN,b,-30,landoltCL.png,,,,,5,47,447,11,,,b,0,0.600732530912,,,2020_Mar_11_1110,59.9503357829,duckFrog,001,16,
duck,ribbitL.wav,-30,landoltCR.png,V1,duckFront.png,frogFront.png,HinCong,h,30,landoltCTop.png,,,,,5,48,448,38,,,h,0,0.950717282069,,,2020_Mar_11_1110,59.9503357829,duckFrog,001,16,
duck,quackL.wav,30,landoltCTop.png,V1,frogFront.png,duckFront.png,Hcong,h,-30,landoltCL.png,,,,,5,49,449,32,,,h,0,1.13421107037,,,2020_Mar_11_1110,59.9503357829,duckFrog,001,16,
duck,wnR.wav,30,landoltCTop.png,V1,frogFront.png,duckFront.png,HinCongWN,h,-30,landoltCR.png,,,,,5,50,450,35,,,h,0,0.634041353686,,,2020_Mar_11_1110,59.9503357829,duckFrog,001,16,
duck,wnR.wav,30,landoltCBottom.png,V1,frogFront.png,duckFront.png,HinCongWN,b,-30,landoltCL.png,,,,,5,51,451,59,,,b,0,0.719667267334,,,2020_Mar_11_1110,59.9503357829,duckFrog,001,16,
duck,ribbitL.wav,-30,landoltCR.png,V1,duckFront.png,frogFront.png,HinCong,h,30,landoltCTop.png,,,,,5,52,452,6,,,h,0,1.06765867227,,,2020_Mar_11_1110,59.9503357829,duckFrog,001,16,
frog,quackR.wav,30,landoltCTop.png,V1,duckFront.png,frogFront.png,LinCong,h,-30,landoltCR.png,,,,,5,53,453,26,,,h,0,1.26773227725,,,2020_Mar_11_1110,59.9503357829,duckFrog,001,16,
duck,ribbitR.wav,30,landoltCTop.png,V1,frogFront.png,duckFront.png,HinCong,h,-30,landoltCL.png,,,,,5,54,454,66,,,h,0,0.650744334102,,,2020_Mar_11_1110,59.9503357829,duckFrog,001,16,
duck,wnR.wav,-30,landoltCL.png,V1,duckFront.png,frogFront.png,HcongWN,b,30,landoltCBottom.png,,,,,5,55,455,13,,,b,0,1.2177094773,,,2020_Mar_11_1110,59.9503357829,duckFrog,001,16,
duck,quackL.wav,30,landoltCTop.png,V1,frogFront.png,duckFront.png,Hcong,h,-30,landoltCL.png,,,,,5,56,456,0,,,h,0,0.667187057838,,,2020_Mar_11_1110,59.9503357829,duckFrog,001,16,
duck,wnR.wav,-30,landoltCL.png,V1,duckFront.png,frogFront.png,HcongWN,h,30,landoltCTop.png,,,,,5,57,457,69,,,h,0,0.68371592287,,,2020_Mar_11_1110,59.9503357829,duckFrog,001,16,
frog,quackL.wav,-30,landoltCL.png,V1,frogFront.png,duckFront.png,LinCong,h,30,landoltCTop.png,,,,,5,58,458,30,,,h,0,1.0345840805,,,2020_Mar_11_1110,59.9503357829,duckFrog,001,16,
duck,wnR.wav,-30,landoltCL.png,V1,duckFront.png,frogFront.png,HcongWN,h,30,landoltCTop.png,,,,,5,59,459,53,,,h,0,1.50165208007,,,2020_Mar_11_1110,59.9503357829,duckFrog,001,16,
duck,wnR.wav,-30,landoltCL.png,V1,duckFront.png,frogFront.png,HcongWN,h,30,landoltCTop.png,,,,,5,60,460,37,,,h,0,0.634302343484,,,2020_Mar_11_1110,59.9503357829,duckFrog,001,16,
duck,wnL.wav,30,landoltCTop.png,V1,frogFront.png,duckFront.png,HcongWN,h,-30,landoltCR.png,,,,,5,61,461,1,,,h,0,0.550401821651,,,2020_Mar_11_1110,59.9503357829,duckFrog,001,16,
duck,wnL.wav,-30,landoltCL.png,V1,duckFront.png,frogFront.png,HinCongWN,h,30,landoltCTop.png,,,,,5,62,462,55,,,h,0,0.834221993816,,,2020_Mar_11_1110,59.9503357829,duckFrog,001,16,
duck,ribbitR.wav,30,landoltCTop.png,V1,frogFront.png,duckFront.png,HinCong,h,-30,landoltCL.png,,,,,5,63,463,50,,,h,0,1.18425439761,,,2020_Mar_11_1110,59.9503357829,duckFrog,001,16,
duck,wnL.wav,30,landoltCBottom.png,V1,frogFront.png,duckFront.png,HcongWN,b,-30,landoltCL.png,,,,,5,64,464,73,,,b,0,0.767334927619,,,2020_Mar_11_1110,59.9503357829,duckFrog,001,16,
frog,ribbitL.wav,30,landoltCBottom.png,V1,duckFront.png,frogFront.png,Lcong,b,-30,landoltCL.png,,,,,5,65,465,16,,,b,0,1.03462696787,,,2020_Mar_11_1110,59.9503357829,duckFrog,001,16,
duck,ribbitL.wav,-30,landoltCR.png,V1,duckFront.png,frogFront.png,HinCong,b,30,landoltCBottom.png,,,,,5,66,466,78,,,b,0,1.2842450137,,,2020_Mar_11_1110,59.9503357829,duckFrog,001,16,
duck,wnR.wav,-30,landoltCL.png,V1,duckFront.png,frogFront.png,HcongWN,b,30,landoltCBottom.png,,,,,5,67,467,45,,,b,0,0.567373856154,,,2020_Mar_11_1110,59.9503357829,duckFrog,001,16,
duck,ribbitL.wav,-30,landoltCR.png,V1,duckFront.png,frogFront.png,HinCong,h,30,landoltCTop.png,,,,,5,68,468,70,,,h,0,1.05126396772,,,2020_Mar_11_1110,59.9503357829,duckFrog,001,16,
frog,wnL.wav,-30,landoltCR.png,V1,frogFront.png,duckFront.png,LinCongWN,b,30,landoltCBottom.png,,,,,5,69,469,23,,,b,0,0.967617104508,,,2020_Mar_11_1110,59.9503357829,duckFrog,001,16,
duck,quackL.wav,30,landoltCBottom.png,V1,frogFront.png,duckFront.png,Hcong,b,-30,landoltCR.png,,,,,5,70,470,8,,,b,0,0.616887139508,,,2020_Mar_11_1110,59.9503357829,duckFrog,001,16,
frog,ribbitR.wav,-30,landoltCL.png,V1,frogFront.png,duckFront.png,Lcong,h,30,landoltCTop.png,,,,,5,71,471,28,,,h,0,1.2174147641,,,2020_Mar_11_1110,59.9503357829,duckFrog,001,16,
duck,wnL.wav,-30,landoltCL.png,V1,duckFront.png,frogFront.png,HinCongWN,b,30,landoltCBottom.png,,,,,5,72,472,79,,,b,0,0.734310554398,,,2020_Mar_11_1110,59.9503357829,duckFrog,001,16,
frog,wnL.wav,30,landoltCTop.png,V1,duckFront.png,frogFront.png,LcongWN,h,-30,landoltCL.png,,,,,5,73,473,25,,,h,0,0.750238629716,,,2020_Mar_11_1110,59.9503357829,duckFrog,001,16,
duck,ribbitL.wav,-30,landoltCR.png,V1,duckFront.png,frogFront.png,HinCong,h,30,landoltCTop.png,,,,,5,74,474,54,,,h,0,0.700588986524,,,2020_Mar_11_1110,59.9503357829,duckFrog,001,16,
duck,ribbitL.wav,-30,landoltCR.png,V1,duckFront.png,frogFront.png,HinCong,b,30,landoltCBottom.png,,,,,5,75,475,14,,,b,0,1.16789341646,,,2020_Mar_11_1110,59.9503357829,duckFrog,001,16,
duck,quackR.wav,-30,landoltCR.png,V1,duckFront.png,frogFront.png,Hcong,h,30,landoltCTop.png,,,,,5,76,476,36,,,h,0,0.667626195164,,,2020_Mar_11_1110,59.9503357829,duckFrog,001,16,
duck,wnL.wav,-30,landoltCL.png,V1,duckFront.png,frogFront.png,HinCongWN,h,30,landoltCTop.png,,,,,5,77,477,39,,,h,0,1.2345990361,,,2020_Mar_11_1110,59.9503357829,duckFrog,001,16,
duck,quackR.wav,-30,landoltCR.png,V1,duckFront.png,frogFront.png,Hcong,h,30,landoltCTop.png,,,,,5,78,478,4,,,h,0,0.767526637821,,,2020_Mar_11_1110,59.9503357829,duckFrog,001,16,
duck,quackL.wav,30,landoltCBottom.png,V1,frogFront.png,duckFront.png,Hcong,b,-30,landoltCR.png,,,,,5,79,479,56,,,b,0,0.934021999387,,,2020_Mar_11_1110,59.9503357829,duckFrog,001,16,
duck,quackL.wav,30,landoltCBottom.png,V1,frogFront.png,duckFront.png,Hcong,b,-30,landoltCR.png,,,,,6,0,480,40,,,b,0,0.617394090194,,,2020_Mar_11_1110,59.9503357829,duckFrog,001,16,
duck,wnR.wav,30,landoltCBottom.png,V1,frogFront.png,duckFront.png,HinCongWN,b,-30,landoltCL.png,,,,,6,1,481,11,,,b,0,1.23449529998,,,2020_Mar_11_1110,59.9503357829,duckFrog,001,16,
frog,quackL.wav,-30,landoltCL.png,V1,frogFront.png,duckFront.png,LinCong,b,30,landoltCBottom.png,,,,,6,2,482,22,,,b,0,1.38465973822,,,2020_Mar_11_1110,59.9503357829,duckFrog,001,16,
duck,ribbitL.wav,-30,landoltCR.png,V1,duckFront.png,frogFront.png,HinCong,h,30,landoltCTop.png,,,,,6,3,483,54,,,h,0,1.08442433422,,,2020_Mar_11_1110,59.9503357829,duckFrog,001,16,
frog,wnR.wav,30,landoltCTop.png,V1,duckFront.png,frogFront.png,LinCongWN,h,-30,landoltCL.png,,,,,6,4,484,27,,,h,0,1.20091962247,,,2020_Mar_11_1110,59.9503357829,duckFrog,001,16,
frog,wnL.wav,-30,landoltCR.png,V1,frogFront.png,duckFront.png,LinCongWN,b,30,landoltCBottom.png,,,,,6,5,485,23,,,b,0,1.06753257607,,,2020_Mar_11_1110,59.9503357829,duckFrog,001,16,
duck,ribbitR.wav,30,landoltCTop.png,V1,frogFront.png,duckFront.png,HinCong,h,-30,landoltCL.png,,,,,6,6,486,2,,,h,0,1.31764804206,,,2020_Mar_11_1110,59.9503357829,duckFrog,001,16,
duck,quackR.wav,-30,landoltCR.png,V1,duckFront.png,frogFront.png,Hcong,h,30,landoltCTop.png,,,,,6,7,487,4,,,h,0,1.13286176778,,,2020_Mar_11_1110,59.9503357829,duckFrog,001,16,
duck,quackR.wav,-30,landoltCR.png,V1,duckFront.png,frogFront.png,Hcong,b,30,landoltCBottom.png,,,,,6,8,488,60,,,b,0,1.01783601337,,,2020_Mar_11_1110,59.9503357829,duckFrog,001,16,
duck,wnR.wav,30,landoltCTop.png,V1,frogFront.png,duckFront.png,HinCongWN,h,-30,landoltCR.png,,,,,6,9,489,35,,,h,0,1.05100151169,,,2020_Mar_11_1110,59.9503357829,duckFrog,001,16,
duck,wnL.wav,-30,landoltCL.png,V1,duckFront.png,frogFront.png,HinCongWN,b,30,landoltCBottom.png,,,,,6,10,490,47,,,b,0,1.55120091962,,,2020_Mar_11_1110,59.9503357829,duckFrog,001,16,
duck,wnL.wav,30,landoltCBottom.png,V1,frogFront.png,duckFront.png,HcongWN,b,-30,landoltCL.png,,,,,6,11,491,73,,,b,0,0.78388945176,,,2020_Mar_11_1110,59.9503357829,duckFrog,001,16,
duck,quackL.wav,30,landoltCTop.png,V1,frogFront.png,duckFront.png,Hcong,h,-30,landoltCL.png,,,,,6,12,492,64,,,h,0,1.23463129326,,,2020_Mar_11_1110,59.9503357829,duckFrog,001,16,
duck,ribbitR.wav,30,landoltCBottom.png,V1,frogFront.png,duckFront.png,HinCong,b,-30,landoltCR.png,,,,,6,13,493,74,,,b,0,1.51826745296,,,2020_Mar_11_1110,59.9503357829,duckFrog,001,16,
duck,wnR.wav,30,landoltCBottom.png,V1,frogFront.png,duckFront.png,HinCongWN,b,-30,landoltCL.png,,,,,6,14,494,43,,,b,0,1.25141271724,,,2020_Mar_11_1110,59.9503357829,duckFrog,001,16,
duck,wnL.wav,30,landoltCTop.png,V1,frogFront.png,duckFront.png,HcongWN,h,-30,landoltCR.png,,,,,6,15,495,49,,,h,0,1.26797567223,,,2020_Mar_11_1110,59.9503357829,duckFrog,001,16,
duck,ribbitL.wav,-30,landoltCR.png,V1,duckFront.png,frogFront.png,HinCong,b,30,landoltCBottom.png,,,,,6,16,496,46,,,b,0,0.817283316154,,,2020_Mar_11_1110,59.9503357829,duckFrog,001,16,
frog,wnL.wav,30,landoltCBottom.png,V1,duckFront.png,frogFront.png,LcongWN,b,-30,landoltCR.png,,,,,6,17,497,17,,,b,0,0.667096884398,,,2020_Mar_11_1110,59.9503357829,duckFrog,001,16,
duck,ribbitL.wav,-30,landoltCR.png,V1,duckFront.png,frogFront.png,HinCong,h,30,landoltCTop.png,,,,,6,18,498,38,,,h,0,0.750626448823,,,2020_Mar_11_1110,59.9503357829,duckFrog,001,16,
duck,wnL.wav,30,landoltCTop.png,V1,frogFront.png,duckFront.png,HcongWN,h,-30,landoltCR.png,,,,,6,19,499,65,,,h,0,0.733836593995,,,2020_Mar_11_1110,59.9503357829,duckFrog,001,16,
frog,wnL.wav,30,landoltCTop.png,V1,duckFront.png,frogFront.png,LcongWN,h,-30,landoltCL.png,,,,,6,20,500,25,,,h,0,1.25113889789,,,2020_Mar_11_1110,59.9503357829,duckFrog,001,16,
duck,wnR.wav,30,landoltCTop.png,V1,frogFront.png,duckFront.png,HinCongWN,h,-30,landoltCR.png,,,,,6,21,501,51,,,h,0,0.634116131662,,,2020_Mar_11_1110,59.9503357829,duckFrog,001,16,
duck,wnL.wav,30,landoltCBottom.png,V1,frogFront.png,duckFront.png,HcongWN,b,-30,landoltCL.png,,,,,6,22,502,41,,,h,0,0.917838799212,,,2020_Mar_11_1110,59.9503357829,duckFrog,001,16,
duck,wnL.wav,-30,landoltCL.png,V1,duckFront.png,frogFront.png,HinCongWN,b,30,landoltCBottom.png,,,,,6,23,503,63,,,b,0,1.03397889208,,,2020_Mar_11_1110,59.9503357829,duckFrog,001,16,
duck,wnR.wav,-30,landoltCL.png,V1,duckFront.png,frogFront.png,HcongWN,h,30,landoltCTop.png,,,,,6,24,504,37,,,h,0,0.517290940576,,,2020_Mar_11_1110,59.9503357829,duckFrog,001,16,
duck,quackL.wav,30,landoltCTop.png,V1,frogFront.png,duckFront.png,Hcong,h,-30,landoltCL.png,,,,,6,25,505,0,,,h,0,1.09814535959,,,2020_Mar_11_1110,59.9503357829,duckFrog,001,16,
duck,wnR.wav,-30,landoltCL.png,V1,duckFront.png,frogFront.png,HcongWN,h,30,landoltCTop.png,,,,,6,26,506,53,,,h,0,0.850681945811,,,2020_Mar_11_1110,59.9503357829,duckFrog,001,16,
frog,ribbitL.wav,30,landoltCTop.png,V1,duckFront.png,frogFront.png,Lcong,h,-30,landoltCR.png,,,,,6,27,507,24,,,h,0,0.900682385682,,,2020_Mar_11_1110,59.9503357829,duckFrog,001,16,
duck,wnL.wav,30,landoltCBottom.png,V1,frogFront.png,duckFront.png,HcongWN,b,-30,landoltCL.png,,,,,6,28,508,9,,,b,0,1.01787633482,,,2020_Mar_11_1110,59.9503357829,duckFrog,001,16,
duck,quackR.wav,-30,landoltCR.png,V1,duckFront.png,frogFront.png,Hcong,h,30,landoltCTop.png,,,,,6,29,509,36,,,h,0,0.633557862758,,,2020_Mar_11_1110,59.9503357829,duckFrog,001,16,
duck,wnR.wav,-30,landoltCL.png,V1,duckFront.png,frogFront.png,HcongWN,h,30,landoltCTop.png,,,,,6,30,510,69,,,h,0,1.18453371534,,,2020_Mar_11_1110,59.9503357829,duckFrog,001,16,
duck,ribbitR.wav,30,landoltCTop.png,V1,frogFront.png,duckFront.png,HinCong,h,-30,landoltCL.png,,,,,6,31,511,66,,,h,0,1.01749987904,,,2020_Mar_11_1110,59.9503357829,duckFrog,001,16,
duck,quackR.wav,-30,landoltCR.png,V1,duckFront.png,frogFront.png,Hcong,b,30,landoltCBottom.png,,,,,6,32,512,12,,,b,0,4.43676752407,,,2020_Mar_11_1110,59.9503357829,duckFrog,001,16,
duck,wnL.wav,-30,landoltCL.png,V1,duckFront.png,frogFront.png,HinCongWN,b,30,landoltCBottom.png,,,,,6,33,513,79,,,b,0,0.717592911635,,,2020_Mar_11_1110,59.9503357829,duckFrog,001,16,
duck,wnR.wav,-30,landoltCL.png,V1,duckFront.png,frogFront.png,HcongWN,b,30,landoltCBottom.png,,,,,6,34,514,13,,,b,0,0.517365351991,,,2020_Mar_11_1110,59.9503357829,duckFrog,001,16,
duck,wnR.wav,-30,landoltCL.png,V1,duckFront.png,frogFront.png,HcongWN,b,30,landoltCBottom.png,,,,,6,35,515,61,,,b,0,0.517498412801,,,2020_Mar_11_1110,59.9503357829,duckFrog,001,16,
duck,ribbitL.wav,-30,landoltCR.png,V1,duckFront.png,frogFront.png,HinCong,h,30,landoltCTop.png,,,,,6,36,516,6,,,h,0,0.550705698815,,,2020_Mar_11_1110,59.9503357829,duckFrog,001,16,
duck,wnL.wav,-30,landoltCL.png,V1,duckFront.png,frogFront.png,HinCongWN,h,30,landoltCTop.png,,,,,6,37,517,7,,,h,0,1.08446025697,,,2020_Mar_11_1110,59.9503357829,duckFrog,001,16,
duck,wnR.wav,-30,landoltCL.png,V1,duckFront.png,frogFront.png,HcongWN,b,30,landoltCBottom.png,,,,,6,38,518,45,,,b,0,0.583998759565,,,2020_Mar_11_1110,59.9503357829,duckFrog,001,16,
duck,wnR.wav,-30,landoltCL.png,V1,duckFront.png,frogFront.png,HcongWN,b,30,landoltCBottom.png,,,,,6,39,519,77,,,b,0,0.650641697665,,,2020_Mar_11_1110,59.9503357829,duckFrog,001,16,
frog,wnL.wav,-30,landoltCR.png,V1,frogFront.png,duckFront.png,LinCongWN,h,30,landoltCTop.png,,,,,6,40,520,31,,,h,0,1.26793351798,,,2020_Mar_11_1110,59.9503357829,duckFrog,001,16,
duck,quackL.wav,30,landoltCTop.png,V1,frogFront.png,duckFront.png,Hcong,h,-30,landoltCL.png,,,,,6,41,521,32,,,h,0,1.13402302575,,,2020_Mar_11_1110,59.9503357829,duckFrog,001,16,
frog,wnR.wav,-30,landoltCR.png,V1,frogFront.png,duckFront.png,LcongWN,h,30,landoltCTop.png,,,,,6,42,522,29,,,h,0,1.08420769803,,,2020_Mar_11_1110,59.9503357829,duckFrog,001,16,
duck,ribbitR.wav,30,landoltCBottom.png,V1,frogFront.png,duckFront.png,HinCong,b,-30,landoltCR.png,,,,,6,43,523,58,,,b,0,1.18434200513,,,2020_Mar_11_1110,59.9503357829,duckFrog,001,16,
duck,quackR.wav,-30,landoltCR.png,V1,duckFront.png,frogFront.png,Hcong,h,30,landoltCTop.png,,,,,6,44,524,68,,,h,0,0.600214950024,,,2020_Mar_11_1110,59.9503357829,duckFrog,001,16,
duck,ribbitL.wav,-30,landoltCR.png,V1,duckFront.png,frogFront.png,HinCong,b,30,landoltCBottom.png,,,,,6,45,525,78,,,b,0,0.583986296569,,,2020_Mar_11_1110,59.9503357829,duckFrog,001,16,
duck,quackL.wav,30,landoltCTop.png,V1,frogFront.png,duckFront.png,Hcong,h,-30,landoltCL.png,,,,,6,46,526,48,,,h,0,1.2507180885,,,2020_Mar_11_1110,59.9503357829,duckFrog,001,16,
duck,quackL.wav,30,landoltCBottom.png,V1,frogFront.png,duckFront.png,Hcong,b,-30,landoltCR.png,,,,,6,47,527,72,,,b,0,0.667502664882,,,2020_Mar_11_1110,59.9503357829,duckFrog,001,16,
duck,ribbitR.wav,30,landoltCBottom.png,V1,frogFront.png,duckFront.png,HinCong,b,-30,landoltCR.png,,,,,6,48,528,10,,,b,0,0.517386245838,,,2020_Mar_11_1110,59.9503357829,duckFrog,001,16,
duck,quackR.wav,-30,landoltCR.png,V1,duckFront.png,frogFront.png,Hcong,b,30,landoltCBottom.png,,,,,6,49,529,76,,,b,0,0.617223273839,,,2020_Mar_11_1110,59.9503357829,duckFrog,001,16,
duck,wnR.wav,30,landoltCBottom.png,V1,frogFront.png,duckFront.png,HinCongWN,b,-30,landoltCL.png,,,,,6,50,530,75,,,b,0,0.550424914848,,,2020_Mar_11_1110,59.9503357829,duckFrog,001,16,
duck,ribbitR.wav,30,landoltCTop.png,V1,frogFront.png,duckFront.png,HinCong,h,-30,landoltCL.png,,,,,6,51,531,50,,,h,0,0.634392883483,,,2020_Mar_11_1110,59.9503357829,duckFrog,001,16,
duck,quackL.wav,30,landoltCBottom.png,V1,frogFront.png,duckFront.png,Hcong,b,-30,landoltCR.png,,,,,6,52,532,8,,,b,0,0.533975226496,,,2020_Mar_11_1110,59.9503357829,duckFrog,001,16,
duck,ribbitL.wav,-30,landoltCR.png,V1,duckFront.png,frogFront.png,HinCong,b,30,landoltCBottom.png,,,,,6,53,533,62,,,b,0,1.33454639827,,,2020_Mar_11_1110,59.9503357829,duckFrog,001,16,
duck,quackR.wav,-30,landoltCR.png,V1,duckFront.png,frogFront.png,Hcong,b,30,landoltCBottom.png,,,,,6,54,534,44,,,b,0,0.450771899317,,,2020_Mar_11_1110,59.9503357829,duckFrog,001,16,
frog,wnR.wav,-30,landoltCR.png,V1,frogFront.png,duckFront.png,LcongWN,b,30,landoltCBottom.png,,,,,6,55,535,21,,,b,0,1.16794949994,,,2020_Mar_11_1110,59.9503357829,duckFrog,001,16,
duck,wnL.wav,30,landoltCTop.png,V1,frogFront.png,duckFront.png,HcongWN,h,-30,landoltCR.png,,,,,6,56,536,33,,,h,0,1.11750699027,,,2020_Mar_11_1110,59.9503357829,duckFrog,001,16,
duck,ribbitR.wav,30,landoltCTop.png,V1,frogFront.png,duckFront.png,HinCong,h,-30,landoltCL.png,,,,,6,57,537,34,,,h,0,0.417379867717,,,2020_Mar_11_1110,59.9503357829,duckFrog,001,16,
duck,wnR.wav,-30,landoltCL.png,V1,duckFront.png,frogFront.png,HcongWN,h,30,landoltCTop.png,,,,,6,58,538,5,,,h,0,0.533765554918,,,2020_Mar_11_1110,59.9503357829,duckFrog,001,16,
duck,ribbitL.wav,-30,landoltCR.png,V1,duckFront.png,frogFront.png,HinCong,h,30,landoltCTop.png,,,,,6,59,539,70,,,h,0,0.317308608704,,,2020_Mar_11_1110,59.9503357829,duckFrog,001,16,
frog,quackL.wav,-30,landoltCL.png,V1,frogFront.png,duckFront.png,LinCong,h,30,landoltCTop.png,,,,,6,60,540,30,,,h,0,1.15113838471,,,2020_Mar_11_1110,59.9503357829,duckFrog,001,16,
duck,wnL.wav,-30,landoltCL.png,V1,duckFront.png,frogFront.png,HinCongWN,h,30,landoltCTop.png,,,,,6,61,541,71,,,h,0,0.50079396615,,,2020_Mar_11_1110,59.9503357829,duckFrog,001,16,
frog,wnR.wav,30,landoltCBottom.png,V1,duckFront.png,frogFront.png,LinCongWN,b,-30,landoltCR.png,,,,,6,62,542,19,,,b,0,1.18408871307,,,2020_Mar_11_1110,59.9503357829,duckFrog,001,16,
frog,ribbitR.wav,-30,landoltCL.png,V1,frogFront.png,duckFront.png,Lcong,b,30,landoltCBottom.png,,,,,6,63,543,20,,,b,0,0.600502332046,,,2020_Mar_11_1110,59.9503357829,duckFrog,001,16,
duck,wnR.wav,30,landoltCTop.png,V1,frogFront.png,duckFront.png,HinCongWN,h,-30,landoltCR.png,,,,,6,64,544,67,,,h,0,0.650676520742,,,2020_Mar_11_1110,59.9503357829,duckFrog,001,16,
duck,wnL.wav,30,landoltCTop.png,V1,frogFront.png,duckFront.png,HcongWN,h,-30,landoltCR.png,,,,,6,65,545,1,,,h,0,0.567609919958,,,2020_Mar_11_1110,59.9503357829,duckFrog,001,16,
duck,quackL.wav,30,landoltCBottom.png,V1,frogFront.png,duckFront.png,Hcong,b,-30,landoltCR.png,,,,,6,66,546,56,,,b,0,0.550476599626,,,2020_Mar_11_1110,59.9503357829,duckFrog,001,16,
