targetAnim,audioPos,distPos,visualL,expLab,picR,picL,condLabel,corrAns,targetPos,visualR,pracTrials1a.thisRepN,pracTrials1a.thisTrialN,pracTrials1a.thisN,pracTrials1a.thisIndex,exp1a.thisRepN,exp1a.thisTrialN,exp1a.thisN,exp1a.thisIndex,pressToCont.keys,pressToCont.rt,key_resp_2.keys,key_resp_2.corr,key_resp_2.rt,spaceToBegin.keys,spaceToBegin.rt,date,frameRate,expName,session,participant,
,,,,,,,,,,,,,,,,,,,space,13.3775598627,,,,,,2020_Feb_26_0910,59.9527072484,duckFrog,001,2,
duck,quackL.wav,20,landoltCTop.png,prac,frogFront.png,duckFront.png,Hcong,h,-20,landoltCL.png,0,0,0,0,,,,,,,h,0,1.48487138921,,,2020_Feb_26_0910,59.9527072484,duckFrog,001,2,
duck,ribbitL.wav,-20,landoltCR.png,prac,duckFront.png,frogFront.png,HinCong,h,20,landoltCTop.png,0,1,1,1,,,,,,,h,0,1.41773396342,,,2020_Feb_26_0910,59.9527072484,duckFrog,001,2,
frog,wnR.wav,20,landoltCBottom.png,prac,duckFront.png,frogFront.png,LinCongWN,b,-20,landoltCR.png,0,2,2,2,,,,,,,b,0,1.30078817453,,,2020_Feb_26_0910,59.9527072484,duckFrog,001,2,
duck,wnL.wav,20,landoltCBottom.png,prac,frogFront.png,duckFront.png,HcongWN,b,-20,landoltCL.png,0,3,3,4,,,,,,,b,0,1.06781592596,,,2020_Feb_26_0910,59.9527072484,duckFrog,001,2,
frog,ribbitR.wav,-20,landoltCL.png,prac,frogFront.png,duckFront.png,Lcong,b,20,landoltCBottom.png,0,4,4,3,,,,,,,b,0,1.35101001585,,,2020_Feb_26_0910,59.9527072484,duckFrog,001,2,
,,,,,,,,,,,,,,,,,,,,,,,,space,9.4579403213,2020_Feb_26_0910,59.9527072484,duckFrog,001,2,
frog,ribbitL.wav,20,landoltCBottom.png,V2,duckFront.png,frogFront.png,Hcong,b,-20,landoltCL.png,,,,,0,0,0,32,,,s,0,2.7185793211,,,2020_Feb_26_0910,59.9527072484,duckFrog,001,2,
duck,ribbitR.wav,20,landoltCTop.png,V2,frogFront.png,duckFront.png,LinCong,h,-20,landoltCL.png,,,,,0,1,1,2,,,h,0,2.71879888976,,,2020_Feb_26_0910,59.9527072484,duckFrog,001,2,
frog,wnL.wav,20,landoltCTop.png,V2,duckFront.png,frogFront.png,HcongWN,h,-20,landoltCL.png,,,,,0,2,2,41,,,h,0,1.20114908823,,,2020_Feb_26_0910,59.9527072484,duckFrog,001,2,
frog,wnR.wav,-20,landoltCR.png,V2,frogFront.png,duckFront.png,HcongWN,h,20,landoltCTop.png,,,,,0,3,3,29,,,h,0,0.683809028778,,,2020_Feb_26_0910,59.9527072484,duckFrog,001,2,
frog,wnR.wav,-20,landoltCR.png,V2,frogFront.png,duckFront.png,HcongWN,h,20,landoltCTop.png,,,,,0,4,4,45,,,h,0,0.834199267178,,,2020_Feb_26_0910,59.9527072484,duckFrog,001,2,
frog,wnL.wav,20,landoltCBottom.png,V2,duckFront.png,frogFront.png,HcongWN,b,-20,landoltCR.png,,,,,0,5,5,17,,,b,0,1.43441495032,,,2020_Feb_26_0910,59.9527072484,duckFrog,001,2,
frog,quackL.wav,-20,landoltCL.png,V2,frogFront.png,duckFront.png,HinCong,b,20,landoltCBottom.png,,,,,0,6,6,22,,,b,0,1.46778462183,,,2020_Feb_26_0910,59.9527072484,duckFrog,001,2,
frog,quackL.wav,-20,landoltCL.png,V2,frogFront.png,duckFront.png,HinCong,h,20,landoltCTop.png,,,,,0,7,7,62,,,h,0,1.01760434828,,,2020_Feb_26_0910,59.9527072484,duckFrog,001,2,
frog,wnR.wav,-20,landoltCR.png,V2,frogFront.png,duckFront.png,HcongWN,h,20,landoltCTop.png,,,,,0,8,8,77,,,h,0,0.617362199584,,,2020_Feb_26_0910,59.9527072484,duckFrog,001,2,
frog,wnR.wav,-20,landoltCR.png,V2,frogFront.png,duckFront.png,HcongWN,b,20,landoltCBottom.png,,,,,0,9,9,37,,,b,0,1.13456553263,,,2020_Feb_26_0910,59.9527072484,duckFrog,001,2,
frog,wnR.wav,-20,landoltCR.png,V2,frogFront.png,duckFront.png,HcongWN,h,20,landoltCTop.png,,,,,0,10,10,61,,,h,0,0.400837073452,,,2020_Feb_26_0910,59.9527072484,duckFrog,001,2,
frog,wnL.wav,20,landoltCBottom.png,V2,duckFront.png,frogFront.png,HcongWN,b,-20,landoltCR.png,,,,,0,11,11,33,,,b,0,1.26767985936,,,2020_Feb_26_0910,59.9527072484,duckFrog,001,2,
frog,wnR.wav,20,landoltCBottom.png,V2,duckFront.png,frogFront.png,HinCongWN,b,-20,landoltCR.png,,,,,0,12,12,35,,,b,0,0.5840321164,,,2020_Feb_26_0910,59.9527072484,duckFrog,001,2,
frog,ribbitR.wav,-20,landoltCL.png,V2,frogFront.png,duckFront.png,Hcong,h,20,landoltCTop.png,,,,,0,13,13,60,,,h,0,0.800653280909,,,2020_Feb_26_0910,59.9527072484,duckFrog,001,2,
duck,wnR.wav,-20,landoltCL.png,V2,duckFront.png,frogFront.png,LcongWN,h,20,landoltCTop.png,,,,,0,14,14,5,,,h,0,1.3013288486,,,2020_Feb_26_0910,59.9527072484,duckFrog,001,2,
frog,wnL.wav,-20,landoltCR.png,V2,frogFront.png,duckFront.png,HinCongWN,b,20,landoltCBottom.png,,,,,0,15,15,23,,,b,0,0.817669302472,,,2020_Feb_26_0910,59.9527072484,duckFrog,001,2,
frog,wnR.wav,20,landoltCTop.png,V2,duckFront.png,frogFront.png,HinCongWN,h,-20,landoltCL.png,,,,,0,16,16,59,,,h,0,1.45116741616,,,2020_Feb_26_0910,59.9527072484,duckFrog,001,2,
frog,ribbitL.wav,20,landoltCBottom.png,V2,duckFront.png,frogFront.png,Hcong,b,-20,landoltCL.png,,,,,0,17,17,48,,,b,0,1.16784686351,,,2020_Feb_26_0910,59.9527072484,duckFrog,001,2,
frog,ribbitR.wav,-20,landoltCL.png,V2,frogFront.png,duckFront.png,Hcong,b,20,landoltCBottom.png,,,,,0,18,18,36,,,b,0,0.800832528126,,,2020_Feb_26_0910,59.9527072484,duckFrog,001,2,
frog,wnL.wav,20,landoltCBottom.png,V2,duckFront.png,frogFront.png,HcongWN,b,-20,landoltCR.png,,,,,0,19,19,49,,,b,0,0.950793526281,,,2020_Feb_26_0910,59.9527072484,duckFrog,001,2,
frog,wnL.wav,20,landoltCBottom.png,V2,duckFront.png,frogFront.png,HcongWN,b,-20,landoltCR.png,,,,,0,20,20,65,,,b,0,1.16795793078,,,2020_Feb_26_0910,59.9527072484,duckFrog,001,2,
frog,wnL.wav,-20,landoltCR.png,V2,frogFront.png,duckFront.png,HinCongWN,h,20,landoltCTop.png,,,,,0,21,21,79,,,h,0,0.984196921199,,,2020_Feb_26_0910,59.9527072484,duckFrog,001,2,
frog,wnR.wav,-20,landoltCR.png,V2,frogFront.png,duckFront.png,HcongWN,b,20,landoltCBottom.png,,,,,0,22,22,21,,,b,0,0.667435951196,,,2020_Feb_26_0910,59.9527072484,duckFrog,001,2,
frog,ribbitL.wav,20,landoltCTop.png,V2,duckFront.png,frogFront.png,Hcong,h,-20,landoltCR.png,,,,,0,23,23,40,,,h,0,0.483786008903,,,2020_Feb_26_0910,59.9527072484,duckFrog,001,2,
duck,wnL.wav,20,landoltCTop.png,V2,frogFront.png,duckFront.png,LcongWN,h,-20,landoltCR.png,,,,,0,24,24,1,,,b,0,0.817705225229,,,2020_Feb_26_0910,59.9527072484,duckFrog,001,2,
frog,quackR.wav,20,landoltCBottom.png,V2,duckFront.png,frogFront.png,HinCong,b,-20,landoltCL.png,,,,,0,25,25,18,,,b,0,1.18453114943,,,2020_Feb_26_0910,59.9527072484,duckFrog,001,2,
frog,ribbitL.wav,20,landoltCBottom.png,V2,duckFront.png,frogFront.png,Hcong,b,-20,landoltCL.png,,,,,0,26,26,64,,,b,0,0.850971160631,,,2020_Feb_26_0910,59.9527072484,duckFrog,001,2,
frog,ribbitR.wav,-20,landoltCL.png,V2,frogFront.png,duckFront.png,Hcong,b,20,landoltCBottom.png,,,,,0,27,27,68,,,b,0,0.667271732906,,,2020_Feb_26_0910,59.9527072484,duckFrog,001,2,
frog,ribbitR.wav,-20,landoltCL.png,V2,frogFront.png,duckFront.png,Hcong,h,20,landoltCTop.png,,,,,0,28,28,44,,,h,0,0.900986262845,,,2020_Feb_26_0910,59.9527072484,duckFrog,001,2,
duck,wnL.wav,-20,landoltCL.png,V2,duckFront.png,frogFront.png,LinCongWN,b,20,landoltCBottom.png,,,,,0,29,29,15,,,b,0,1.45143207154,,,2020_Feb_26_0910,59.9527072484,duckFrog,001,2,
duck,ribbitL.wav,-20,landoltCR.png,V2,duckFront.png,frogFront.png,LinCong,h,20,landoltCTop.png,,,,,0,30,30,6,,,h,0,1.15121609515,,,2020_Feb_26_0910,59.9527072484,duckFrog,001,2,
frog,wnR.wav,-20,landoltCR.png,V2,frogFront.png,duckFront.png,HcongWN,b,20,landoltCBottom.png,,,,,0,31,31,69,,,b,0,0.884138491747,,,2020_Feb_26_0910,59.9527072484,duckFrog,001,2,
frog,wnR.wav,20,landoltCTop.png,V2,duckFront.png,frogFront.png,HinCongWN,h,-20,landoltCL.png,,,,,0,32,32,43,,,h,0,0.967217188954,,,2020_Feb_26_0910,59.9527072484,duckFrog,001,2,
frog,ribbitL.wav,20,landoltCBottom.png,V2,duckFront.png,frogFront.png,Hcong,b,-20,landoltCL.png,,,,,0,33,33,16,,,b,0,0.667440349906,,,2020_Feb_26_0910,59.9527072484,duckFrog,001,2,
frog,wnR.wav,20,landoltCTop.png,V2,duckFront.png,frogFront.png,HinCongWN,h,-20,landoltCL.png,,,,,0,34,34,27,,,h,0,0.750814126877,,,2020_Feb_26_0910,59.9527072484,duckFrog,001,2,
duck,quackR.wav,-20,landoltCR.png,V2,duckFront.png,frogFront.png,Lcong,h,20,landoltCTop.png,,,,,0,35,35,4,,,h,0,0.817329135985,,,2020_Feb_26_0910,59.9527072484,duckFrog,001,2,
frog,wnR.wav,20,landoltCBottom.png,V2,duckFront.png,frogFront.png,HinCongWN,b,-20,landoltCR.png,,,,,0,36,36,67,,,b,0,0.667169096458,,,2020_Feb_26_0910,59.9527072484,duckFrog,001,2,
frog,quackR.wav,20,landoltCTop.png,V2,duckFront.png,frogFront.png,HinCong,h,-20,landoltCR.png,,,,,0,37,37,58,,,b,0,1.06780859477,,,2020_Feb_26_0910,59.9527072484,duckFrog,001,2,
frog,wnL.wav,20,landoltCTop.png,V2,duckFront.png,frogFront.png,HcongWN,h,-20,landoltCL.png,,,,,0,38,38,73,,,h,0,0.88433496721,,,2020_Feb_26_0910,59.9527072484,duckFrog,001,2,
frog,ribbitL.wav,20,landoltCTop.png,V2,duckFront.png,frogFront.png,Hcong,h,-20,landoltCR.png,,,,,0,39,39,72,,,h,0,0.567407946117,,,2020_Feb_26_0910,59.9527072484,duckFrog,001,2,
frog,ribbitR.wav,-20,landoltCL.png,V2,frogFront.png,duckFront.png,Hcong,b,20,landoltCBottom.png,,,,,0,40,40,52,,,b,0,0.850781649773,,,2020_Feb_26_0910,59.9527072484,duckFrog,001,2,
frog,quackR.wav,20,landoltCBottom.png,V2,duckFront.png,frogFront.png,HinCong,b,-20,landoltCL.png,,,,,0,41,41,34,,,b,0,0.800789640765,,,2020_Feb_26_0910,59.9527072484,duckFrog,001,2,
frog,wnL.wav,-20,landoltCR.png,V2,frogFront.png,duckFront.png,HinCongWN,b,20,landoltCBottom.png,,,,,0,42,42,39,,,b,0,0.784063200583,,,2020_Feb_26_0910,59.9527072484,duckFrog,001,2,
frog,wnL.wav,-20,landoltCR.png,V2,frogFront.png,duckFront.png,HinCongWN,h,20,landoltCTop.png,,,,,0,43,43,63,,,h,0,1.00026318915,,,2020_Feb_26_0910,59.9527072484,duckFrog,001,2,
frog,wnR.wav,-20,landoltCR.png,V2,frogFront.png,duckFront.png,HcongWN,b,20,landoltCBottom.png,,,,,0,44,44,53,,,b,0,0.734217081932,,,2020_Feb_26_0910,59.9527072484,duckFrog,001,2,
duck,quackR.wav,-20,landoltCR.png,V2,duckFront.png,frogFront.png,Lcong,b,20,landoltCBottom.png,,,,,0,45,45,12,,,b,0,1.20124366035,,,2020_Feb_26_0910,59.9527072484,duckFrog,001,2,
frog,wnL.wav,-20,landoltCR.png,V2,frogFront.png,duckFront.png,HinCongWN,h,20,landoltCTop.png,,,,,0,46,46,31,,,h,0,1.25119204891,,,2020_Feb_26_0910,59.9527072484,duckFrog,001,2,
frog,ribbitR.wav,-20,landoltCL.png,V2,frogFront.png,duckFront.png,Hcong,b,20,landoltCBottom.png,,,,,0,47,47,20,,,b,0,0.834313633502,,,2020_Feb_26_0910,59.9527072484,duckFrog,001,2,
frog,wnR.wav,20,landoltCBottom.png,V2,duckFront.png,frogFront.png,HinCongWN,b,-20,landoltCR.png,,,,,0,48,48,51,,,b,0,0.85078384912,,,2020_Feb_26_0910,59.9527072484,duckFrog,001,2,
duck,ribbitR.wav,20,landoltCBottom.png,V2,frogFront.png,duckFront.png,LinCong,b,-20,landoltCR.png,,,,,0,49,49,10,,,b,0,1.20112672813,,,2020_Feb_26_0910,59.9527072484,duckFrog,001,2,
frog,ribbitL.wav,20,landoltCTop.png,V2,duckFront.png,frogFront.png,Hcong,h,-20,landoltCR.png,,,,,0,50,50,56,,,h,0,0.80091097168,,,2020_Feb_26_0910,59.9527072484,duckFrog,001,2,
duck,wnL.wav,20,landoltCBottom.png,V2,frogFront.png,duckFront.png,LcongWN,b,-20,landoltCL.png,,,,,0,51,51,9,,,b,0,1.4180891588,,,2020_Feb_26_0910,59.9527072484,duckFrog,001,2,
frog,wnL.wav,20,landoltCTop.png,V2,duckFront.png,frogFront.png,HcongWN,h,-20,landoltCL.png,,,,,0,52,52,57,,,h,0,0.884325070117,,,2020_Feb_26_0910,59.9527072484,duckFrog,001,2,
frog,ribbitR.wav,-20,landoltCL.png,V2,frogFront.png,duckFront.png,Hcong,h,20,landoltCTop.png,,,,,0,53,53,76,,,h,0,1.18434237169,,,2020_Feb_26_0910,59.9527072484,duckFrog,001,2,
frog,wnL.wav,-20,landoltCR.png,V2,frogFront.png,duckFront.png,HinCongWN,b,20,landoltCBottom.png,,,,,0,54,54,55,,,b,0,0.951015294282,,,2020_Feb_26_0910,59.9527072484,duckFrog,001,2,
frog,wnL.wav,-20,landoltCR.png,V2,frogFront.png,duckFront.png,HinCongWN,b,20,landoltCBottom.png,,,,,0,55,55,71,,,b,0,0.800834727474,,,2020_Feb_26_0910,59.9527072484,duckFrog,001,2,
frog,ribbitR.wav,-20,landoltCL.png,V2,frogFront.png,duckFront.png,Hcong,h,20,landoltCTop.png,,,,,0,56,56,28,,,h,0,0.86764591602,,,2020_Feb_26_0910,59.9527072484,duckFrog,001,2,
frog,wnL.wav,-20,landoltCR.png,V2,frogFront.png,duckFront.png,HinCongWN,h,20,landoltCTop.png,,,,,0,57,57,47,,,h,0,0.68405645591,,,2020_Feb_26_0910,59.9527072484,duckFrog,001,2,
frog,quackR.wav,20,landoltCTop.png,V2,duckFront.png,frogFront.png,HinCong,h,-20,landoltCR.png,,,,,0,58,58,42,,,h,0,0.683907266517,,,2020_Feb_26_0910,59.9527072484,duckFrog,001,2,
duck,wnR.wav,20,landoltCBottom.png,V2,frogFront.png,duckFront.png,LinCongWN,b,-20,landoltCL.png,,,,,0,59,59,11,,,b,0,1.51807390996,,,2020_Feb_26_0910,59.9527072484,duckFrog,001,2,
frog,quackR.wav,20,landoltCTop.png,V2,duckFront.png,frogFront.png,HinCong,h,-20,landoltCR.png,,,,,0,60,60,26,,,h,0,0.817497753,,,2020_Feb_26_0910,59.9527072484,duckFrog,001,2,
frog,quackL.wav,-20,landoltCL.png,V2,frogFront.png,duckFront.png,HinCong,b,20,landoltCBottom.png,,,,,0,61,61,70,,,b,0,0.85056977885,,,2020_Feb_26_0910,59.9527072484,duckFrog,001,2,
frog,wnL.wav,20,landoltCTop.png,V2,duckFront.png,frogFront.png,HcongWN,h,-20,landoltCL.png,,,,,0,62,62,25,,,h,0,0.667199520831,,,2020_Feb_26_0910,59.9527072484,duckFrog,001,2,
duck,wnL.wav,-20,landoltCL.png,V2,duckFront.png,frogFront.png,LinCongWN,h,20,landoltCTop.png,,,,,0,63,63,7,,,h,0,0.567096371218,,,2020_Feb_26_0910,59.9527072484,duckFrog,001,2,
frog,wnR.wav,20,landoltCTop.png,V2,duckFront.png,frogFront.png,HinCongWN,h,-20,landoltCL.png,,,,,0,64,64,75,,,h,0,0.800610026999,,,2020_Feb_26_0910,59.9527072484,duckFrog,001,2,
duck,wnR.wav,20,landoltCTop.png,V2,frogFront.png,duckFront.png,LinCongWN,h,-20,landoltCR.png,,,,,0,65,65,3,,,h,0,1.18444904027,,,2020_Feb_26_0910,59.9527072484,duckFrog,001,2,
frog,quackL.wav,-20,landoltCL.png,V2,frogFront.png,duckFront.png,HinCong,h,20,landoltCTop.png,,,,,0,66,66,46,,,h,0,1.31792516045,,,2020_Feb_26_0910,59.9527072484,duckFrog,001,2,
frog,quackL.wav,-20,landoltCL.png,V2,frogFront.png,duckFront.png,HinCong,h,20,landoltCTop.png,,,,,0,67,67,78,,,h,0,0.700948214042,,,2020_Feb_26_0910,59.9527072484,duckFrog,001,2,
duck,quackL.wav,20,landoltCTop.png,V2,frogFront.png,duckFront.png,Lcong,h,-20,landoltCL.png,,,,,0,68,68,0,,,h,0,0.617104508812,,,2020_Feb_26_0910,59.9527072484,duckFrog,001,2,
frog,ribbitL.wav,20,landoltCTop.png,V2,duckFront.png,frogFront.png,Hcong,h,-20,landoltCR.png,,,,,0,69,69,24,,,h,0,0.784185264623,,,2020_Feb_26_0910,59.9527072484,duckFrog,001,2,
frog,quackL.wav,-20,landoltCL.png,V2,frogFront.png,duckFront.png,HinCong,b,20,landoltCBottom.png,,,,,0,70,70,54,,,b,0,1.3343099679,,,2020_Feb_26_0910,59.9527072484,duckFrog,001,2,
frog,quackL.wav,-20,landoltCL.png,V2,frogFront.png,duckFront.png,HinCong,b,20,landoltCBottom.png,,,,,0,71,71,38,,,b,0,0.767641370694,,,2020_Feb_26_0910,59.9527072484,duckFrog,001,2,
duck,quackL.wav,20,landoltCBottom.png,V2,frogFront.png,duckFront.png,Lcong,b,-20,landoltCR.png,,,,,0,72,72,8,,,b,0,1.16774496018,,,2020_Feb_26_0910,59.9527072484,duckFrog,001,2,
frog,quackR.wav,20,landoltCTop.png,V2,duckFront.png,frogFront.png,HinCong,h,-20,landoltCR.png,,,,,0,73,73,74,,,h,0,1.53477249168,,,2020_Feb_26_0910,59.9527072484,duckFrog,001,2,
frog,wnR.wav,20,landoltCBottom.png,V2,duckFront.png,frogFront.png,HinCongWN,b,-20,landoltCR.png,,,,,0,74,74,19,,,b,0,1.03448400999,,,2020_Feb_26_0910,59.9527072484,duckFrog,001,2,
frog,quackR.wav,20,landoltCBottom.png,V2,duckFront.png,frogFront.png,HinCong,b,-20,landoltCL.png,,,,,0,75,75,66,,,b,0,0.550630920843,,,2020_Feb_26_0910,59.9527072484,duckFrog,001,2,
frog,quackL.wav,-20,landoltCL.png,V2,frogFront.png,duckFront.png,HinCong,h,20,landoltCTop.png,,,,,0,76,76,30,,,h,0,0.733924934655,,,2020_Feb_26_0910,59.9527072484,duckFrog,001,2,
duck,ribbitL.wav,-20,landoltCR.png,V2,duckFront.png,frogFront.png,LinCong,b,20,landoltCBottom.png,,,,,0,77,77,14,,,b,0,1.40143529726,,,2020_Feb_26_0910,59.9527072484,duckFrog,001,2,
frog,quackR.wav,20,landoltCBottom.png,V2,duckFront.png,frogFront.png,HinCong,b,-20,landoltCL.png,,,,,0,78,78,50,,,b,0,1.05078707484,,,2020_Feb_26_0910,59.9527072484,duckFrog,001,2,
duck,wnR.wav,-20,landoltCL.png,V2,duckFront.png,frogFront.png,LcongWN,b,20,landoltCBottom.png,,,,,0,79,79,13,,,b,0,1.65142136803,,,2020_Feb_26_0910,59.9527072484,duckFrog,001,2,
frog,quackR.wav,20,landoltCBottom.png,V2,duckFront.png,frogFront.png,HinCong,b,-20,landoltCL.png,,,,,1,0,80,34,,,b,0,1.18427565802,,,2020_Feb_26_0910,59.9527072484,duckFrog,001,2,
frog,quackR.wav,20,landoltCBottom.png,V2,duckFront.png,frogFront.png,HinCong,b,-20,landoltCL.png,,,,,1,1,81,18,,,b,0,0.584145749614,,,2020_Feb_26_0910,59.9527072484,duckFrog,001,2,
frog,wnL.wav,20,landoltCBottom.png,V2,duckFront.png,frogFront.png,HcongWN,b,-20,landoltCR.png,,,,,1,2,82,33,,,b,0,0.845631133445,,,2020_Feb_26_0910,59.9527072484,duckFrog,001,2,
frog,wnR.wav,20,landoltCBottom.png,V2,duckFront.png,frogFront.png,HinCongWN,b,-20,landoltCR.png,,,,,1,3,83,51,,,b,0,0.684270892743,,,2020_Feb_26_0910,59.9527072484,duckFrog,001,2,
frog,ribbitR.wav,-20,landoltCL.png,V2,frogFront.png,duckFront.png,Hcong,h,20,landoltCTop.png,,,,,1,4,84,28,,,h,0,1.3174009815,,,2020_Feb_26_0910,59.9527072484,duckFrog,001,2,
frog,wnR.wav,-20,landoltCR.png,V2,frogFront.png,duckFront.png,HcongWN,h,20,landoltCTop.png,,,,,1,5,85,77,,,h,0,0.934288487566,,,2020_Feb_26_0910,59.9527072484,duckFrog,001,2,
frog,ribbitR.wav,-20,landoltCL.png,V2,frogFront.png,duckFront.png,Hcong,h,20,landoltCTop.png,,,,,1,6,86,60,,,h,0,0.667645989335,,,2020_Feb_26_0910,59.9527072484,duckFrog,001,2,
frog,wnR.wav,-20,landoltCR.png,V2,frogFront.png,duckFront.png,HcongWN,b,20,landoltCBottom.png,,,,,1,7,87,69,,,b,0,0.66733551411,,,2020_Feb_26_0910,59.9527072484,duckFrog,001,2,
frog,wnL.wav,-20,landoltCR.png,V2,frogFront.png,duckFront.png,HinCongWN,b,20,landoltCBottom.png,,,,,1,8,88,39,,,b,0,1.48474162743,,,2020_Feb_26_0910,59.9527072484,duckFrog,001,2,
frog,quackL.wav,-20,landoltCL.png,V2,frogFront.png,duckFront.png,HinCong,h,20,landoltCTop.png,,,,,1,9,89,46,,,h,0,0.917501931763,,,2020_Feb_26_0910,59.9527072484,duckFrog,001,2,
frog,wnR.wav,-20,landoltCR.png,V2,frogFront.png,duckFront.png,HcongWN,b,20,landoltCBottom.png,,,,,1,10,90,53,,,b,0,0.900881793626,,,2020_Feb_26_0910,59.9527072484,duckFrog,001,2,
duck,wnR.wav,20,landoltCBottom.png,V2,frogFront.png,duckFront.png,LinCongWN,b,-20,landoltCL.png,,,,,1,11,91,11,,,b,0,1.26761461192,,,2020_Feb_26_0910,59.9527072484,duckFrog,001,2,
frog,wnL.wav,-20,landoltCR.png,V2,frogFront.png,duckFront.png,HinCongWN,b,20,landoltCBottom.png,,,,,1,12,92,55,,,b,0,0.76743316534,,,2020_Feb_26_0910,59.9527072484,duckFrog,001,2,
frog,quackL.wav,-20,landoltCL.png,V2,frogFront.png,duckFront.png,HinCong,b,20,landoltCBottom.png,,,,,1,13,93,70,,,b,0,0.700885899074,,,2020_Feb_26_0910,59.9527072484,duckFrog,001,2,
frog,wnR.wav,-20,landoltCR.png,V2,frogFront.png,duckFront.png,HcongWN,h,20,landoltCTop.png,,,,,1,14,94,29,,,h,0,0.617185884839,,,2020_Feb_26_0910,59.9527072484,duckFrog,001,2,
frog,quackR.wav,20,landoltCBottom.png,V2,duckFront.png,frogFront.png,HinCong,b,-20,landoltCL.png,,,,,1,15,95,66,,,b,0,0.633768267464,,,2020_Feb_26_0910,59.9527072484,duckFrog,001,2,
frog,wnL.wav,20,landoltCTop.png,V2,duckFront.png,frogFront.png,HcongWN,h,-20,landoltCL.png,,,,,1,16,96,25,,,h,0,0.750838686305,,,2020_Feb_26_0910,59.9527072484,duckFrog,001,2,
duck,wnL.wav,20,landoltCTop.png,V2,frogFront.png,duckFront.png,LcongWN,h,-20,landoltCR.png,,,,,1,17,97,1,,,h,0,1.23469654072,,,2020_Feb_26_0910,59.9527072484,duckFrog,001,2,
frog,ribbitR.wav,-20,landoltCL.png,V2,frogFront.png,duckFront.png,Hcong,h,20,landoltCTop.png,,,,,1,18,98,76,,,h,0,0.650734437018,,,2020_Feb_26_0910,59.9527072484,duckFrog,001,2,
frog,quackR.wav,20,landoltCTop.png,V2,duckFront.png,frogFront.png,HinCong,h,-20,landoltCR.png,,,,,1,19,99,74,,,h,0,0.667327449817,,,2020_Feb_26_0910,59.9527072484,duckFrog,001,2,
frog,wnL.wav,20,landoltCTop.png,V2,duckFront.png,frogFront.png,HcongWN,h,-20,landoltCL.png,,,,,1,20,100,57,,,h,0,0.60072629941,,,2020_Feb_26_0910,59.9527072484,duckFrog,001,2,
frog,wnL.wav,20,landoltCBottom.png,V2,duckFront.png,frogFront.png,HcongWN,b,-20,landoltCR.png,,,,,1,21,101,65,,,h,0,0.116960084692,,,2020_Feb_26_0910,59.9527072484,duckFrog,001,2,
frog,wnR.wav,20,landoltCBottom.png,V2,duckFront.png,frogFront.png,HinCongWN,b,-20,landoltCR.png,,,,,1,22,102,19,,,b,0,0.750771239502,,,2020_Feb_26_0910,59.9527072484,duckFrog,001,2,
frog,wnL.wav,-20,landoltCR.png,V2,frogFront.png,duckFront.png,HinCongWN,b,20,landoltCBottom.png,,,,,1,23,103,23,,,b,0,0.717154140861,,,2020_Feb_26_0910,59.9527072484,duckFrog,001,2,
duck,wnR.wav,-20,landoltCL.png,V2,duckFront.png,frogFront.png,LcongWN,b,20,landoltCBottom.png,,,,,1,24,104,13,,,b,0,1.25117628687,,,2020_Feb_26_0910,59.9527072484,duckFrog,001,2,
frog,ribbitR.wav,-20,landoltCL.png,V2,frogFront.png,duckFront.png,Hcong,b,20,landoltCBottom.png,,,,,1,25,105,36,,,b,0,0.71742686053,,,2020_Feb_26_0910,59.9527072484,duckFrog,001,2,
duck,ribbitL.wav,-20,landoltCR.png,V2,duckFront.png,frogFront.png,LinCong,b,20,landoltCBottom.png,,,,,1,26,106,14,,,b,0,1.01786423838,,,2020_Feb_26_0910,59.9527072484,duckFrog,001,2,
frog,ribbitR.wav,-20,landoltCL.png,V2,frogFront.png,duckFront.png,Hcong,h,20,landoltCTop.png,,,,,1,27,107,44,,,h,0,0.533977792409,,,2020_Feb_26_0910,59.9527072484,duckFrog,001,2,
duck,quackL.wav,20,landoltCBottom.png,V2,frogFront.png,duckFront.png,Lcong,b,-20,landoltCR.png,,,,,1,28,108,8,,,b,0,1.00051831402,,,2020_Feb_26_0910,59.9527072484,duckFrog,001,2,
duck,ribbitR.wav,20,landoltCTop.png,V2,frogFront.png,duckFront.png,LinCong,h,-20,landoltCL.png,,,,,1,29,109,2,,,h,0,1.71825711599,,,2020_Feb_26_0910,59.9527072484,duckFrog,001,2,
frog,wnL.wav,-20,landoltCR.png,V2,frogFront.png,duckFront.png,HinCongWN,h,20,landoltCTop.png,,,,,1,30,110,63,,,h,0,0.867118438051,,,2020_Feb_26_0910,59.9527072484,duckFrog,001,2,
duck,wnL.wav,-20,landoltCL.png,V2,duckFront.png,frogFront.png,LinCongWN,b,20,landoltCBottom.png,,,,,1,31,111,15,,,b,0,1.28453642788,,,2020_Feb_26_0910,59.9527072484,duckFrog,001,2,
duck,ribbitR.wav,20,landoltCBottom.png,V2,frogFront.png,duckFront.png,LinCong,b,-20,landoltCR.png,,,,,1,32,112,10,,,b,0,1.18413893161,,,2020_Feb_26_0910,59.9527072484,duckFrog,001,2,
frog,ribbitL.wav,20,landoltCTop.png,V2,duckFront.png,frogFront.png,Hcong,h,-20,landoltCR.png,,,,,1,33,113,72,,,h,0,1.20113992425,,,2020_Feb_26_0910,59.9527072484,duckFrog,001,2,
frog,ribbitL.wav,20,landoltCBottom.png,V2,duckFront.png,frogFront.png,Hcong,b,-20,landoltCL.png,,,,,1,34,114,32,,,b,0,0.684107774112,,,2020_Feb_26_0910,59.9527072484,duckFrog,001,2,
frog,wnR.wav,20,landoltCTop.png,V2,duckFront.png,frogFront.png,HinCongWN,h,-20,landoltCL.png,,,,,1,35,115,75,,,h,0,0.750817425913,,,2020_Feb_26_0910,59.9527072484,duckFrog,001,2,
frog,ribbitR.wav,-20,landoltCL.png,V2,frogFront.png,duckFront.png,Hcong,b,20,landoltCBottom.png,,,,,1,36,116,52,,,b,0,0.633509477004,,,2020_Feb_26_0910,59.9527072484,duckFrog,001,2,
duck,wnR.wav,-20,landoltCL.png,V2,duckFront.png,frogFront.png,LcongWN,h,20,landoltCTop.png,,,,,1,37,117,5,,,h,0,1.25118141869,,,2020_Feb_26_0910,59.9527072484,duckFrog,001,2,
frog,ribbitR.wav,-20,landoltCL.png,V2,frogFront.png,duckFront.png,Hcong,b,20,landoltCBottom.png,,,,,1,38,118,20,,,b,0,1.08459515058,,,2020_Feb_26_0910,59.9527072484,duckFrog,001,2,
duck,ribbitL.wav,-20,landoltCR.png,V2,duckFront.png,frogFront.png,LinCong,h,20,landoltCTop.png,,,,,1,39,119,6,,,h,0,1.30120861735,,,2020_Feb_26_0910,59.9527072484,duckFrog,001,2,
frog,wnR.wav,20,landoltCTop.png,V2,duckFront.png,frogFront.png,HinCongWN,h,-20,landoltCL.png,,,,,1,40,120,43,,,h,0,0.75060885401,,,2020_Feb_26_0910,59.9527072484,duckFrog,001,2,
frog,wnL.wav,-20,landoltCR.png,V2,frogFront.png,duckFront.png,HinCongWN,h,20,landoltCTop.png,,,,,1,41,121,31,,,h,0,0.450061508556,,,2020_Feb_26_0910,59.9527072484,duckFrog,001,2,
frog,quackR.wav,20,landoltCBottom.png,V2,duckFront.png,frogFront.png,HinCong,b,-20,landoltCL.png,,,,,1,42,122,50,,,b,0,0.633823984375,,,2020_Feb_26_0910,59.9527072484,duckFrog,001,2,
frog,ribbitL.wav,20,landoltCBottom.png,V2,duckFront.png,frogFront.png,Hcong,b,-20,landoltCL.png,,,,,1,43,123,48,,,b,0,0.967624435682,,,2020_Feb_26_0910,59.9527072484,duckFrog,001,2,
frog,ribbitR.wav,-20,landoltCL.png,V2,frogFront.png,duckFront.png,Hcong,b,20,landoltCBottom.png,,,,,1,44,124,68,,,b,0,0.800394123915,,,2020_Feb_26_0910,59.9527072484,duckFrog,001,2,
frog,wnR.wav,20,landoltCTop.png,V2,duckFront.png,frogFront.png,HinCongWN,h,-20,landoltCL.png,,,,,1,45,125,27,,,h,0,0.46676375586,,,2020_Feb_26_0910,59.9527072484,duckFrog,001,2,
duck,quackL.wav,20,landoltCTop.png,V2,frogFront.png,duckFront.png,Lcong,h,-20,landoltCL.png,,,,,1,46,126,0,,,b,0,1.0178898975,,,2020_Feb_26_0910,59.9527072484,duckFrog,001,2,
frog,wnR.wav,20,landoltCBottom.png,V2,duckFront.png,frogFront.png,HinCongWN,b,-20,landoltCR.png,,,,,1,47,127,67,,,b,0,0.650525865116,,,2020_Feb_26_0910,59.9527072484,duckFrog,001,2,
frog,wnL.wav,20,landoltCBottom.png,V2,duckFront.png,frogFront.png,HcongWN,b,-20,landoltCR.png,,,,,1,48,128,17,,,b,0,0.884286581466,,,2020_Feb_26_0910,59.9527072484,duckFrog,001,2,
duck,wnR.wav,20,landoltCTop.png,V2,frogFront.png,duckFront.png,LinCongWN,h,-20,landoltCR.png,,,,,1,49,129,3,,,h,0,1.31785294837,,,2020_Feb_26_0910,59.9527072484,duckFrog,001,2,
frog,ribbitL.wav,20,landoltCTop.png,V2,duckFront.png,frogFront.png,Hcong,h,-20,landoltCR.png,,,,,1,50,130,40,,,h,0,0.650705478882,,,2020_Feb_26_0910,59.9527072484,duckFrog,001,2,
frog,quackL.wav,-20,landoltCL.png,V2,frogFront.png,duckFront.png,HinCong,h,20,landoltCTop.png,,,,,1,51,131,62,,,h,0,0.667217115653,,,2020_Feb_26_0910,59.9527072484,duckFrog,001,2,
frog,quackL.wav,-20,landoltCL.png,V2,frogFront.png,duckFront.png,HinCong,b,20,landoltCBottom.png,,,,,1,52,132,22,,,b,0,0.700782162952,,,2020_Feb_26_0910,59.9527072484,duckFrog,001,2,
frog,ribbitL.wav,20,landoltCTop.png,V2,duckFront.png,frogFront.png,Hcong,h,-20,landoltCR.png,,,,,1,53,133,56,,,h,0,0.466973060858,,,2020_Feb_26_0910,59.9527072484,duckFrog,001,2,
frog,wnL.wav,20,landoltCBottom.png,V2,duckFront.png,frogFront.png,HcongWN,b,-20,landoltCR.png,,,,,1,54,134,49,,,b,0,0.617543279586,,,2020_Feb_26_0910,59.9527072484,duckFrog,001,2,
frog,wnL.wav,-20,landoltCR.png,V2,frogFront.png,duckFront.png,HinCongWN,b,20,landoltCBottom.png,,,,,1,55,135,71,,,h,0,0.666948061567,,,2020_Feb_26_0910,59.9527072484,duckFrog,001,2,
frog,quackL.wav,-20,landoltCL.png,V2,frogFront.png,duckFront.png,HinCong,h,20,landoltCTop.png,,,,,1,56,136,78,,,h,0,0.667411025206,,,2020_Feb_26_0910,59.9527072484,duckFrog,001,2,
frog,quackL.wav,-20,landoltCL.png,V2,frogFront.png,duckFront.png,HinCong,b,20,landoltCBottom.png,,,,,1,57,137,38,,,b,0,0.734272798858,,,2020_Feb_26_0910,59.9527072484,duckFrog,001,2,
frog,wnR.wav,20,landoltCTop.png,V2,duckFront.png,frogFront.png,HinCongWN,h,-20,landoltCL.png,,,,,1,58,138,59,,,h,0,0.71712408305,,,2020_Feb_26_0910,59.9527072484,duckFrog,001,2,
frog,wnR.wav,-20,landoltCR.png,V2,frogFront.png,duckFront.png,HcongWN,h,20,landoltCTop.png,,,,,1,59,139,45,,,h,0,0.750593825098,,,2020_Feb_26_0910,59.9527072484,duckFrog,001,2,
frog,quackR.wav,20,landoltCTop.png,V2,duckFront.png,frogFront.png,HinCong,h,-20,landoltCR.png,,,,,1,60,140,58,,,h,0,0.683568199718,,,2020_Feb_26_0910,59.9527072484,duckFrog,001,2,
frog,wnL.wav,20,landoltCTop.png,V2,duckFront.png,frogFront.png,HcongWN,h,-20,landoltCL.png,,,,,1,61,141,73,,,h,0,0.567289914208,,,2020_Feb_26_0910,59.9527072484,duckFrog,001,2,
frog,wnR.wav,20,landoltCBottom.png,V2,duckFront.png,frogFront.png,HinCongWN,b,-20,landoltCR.png,,,,,1,62,142,35,,,b,0,0.901084500583,,,2020_Feb_26_0910,59.9527072484,duckFrog,001,2,
frog,wnL.wav,20,landoltCTop.png,V2,duckFront.png,frogFront.png,HcongWN,h,-20,landoltCL.png,,,,,1,63,143,41,,,h,0,0.667452812893,,,2020_Feb_26_0910,59.9527072484,duckFrog,001,2,
frog,wnR.wav,-20,landoltCR.png,V2,frogFront.png,duckFront.png,HcongWN,h,20,landoltCTop.png,,,,,1,64,144,61,,,h,0,0.500197575137,,,2020_Feb_26_0910,59.9527072484,duckFrog,001,2,
frog,wnR.wav,-20,landoltCR.png,V2,frogFront.png,duckFront.png,HcongWN,b,20,landoltCBottom.png,,,,,1,65,145,37,,,b,0,0.450512742304,,,2020_Feb_26_0910,59.9527072484,duckFrog,001,2,
duck,wnL.wav,-20,landoltCL.png,V2,duckFront.png,frogFront.png,LinCongWN,h,20,landoltCTop.png,,,,,1,66,146,7,,,h,0,0.53393637127,,,2020_Feb_26_0910,59.9527072484,duckFrog,001,2,
duck,quackR.wav,-20,landoltCR.png,V2,duckFront.png,frogFront.png,Lcong,h,20,landoltCTop.png,,,,,1,67,147,4,,,h,0,1.25896529276,,,2020_Feb_26_0910,59.9527072484,duckFrog,001,2,
frog,quackL.wav,-20,landoltCL.png,V2,frogFront.png,duckFront.png,HinCong,h,20,landoltCTop.png,,,,,1,68,148,30,,,h,0,1.5514193886,,,2020_Feb_26_0910,59.9527072484,duckFrog,001,2,
frog,wnL.wav,-20,landoltCR.png,V2,frogFront.png,duckFront.png,HinCongWN,h,20,landoltCTop.png,,,,,1,69,149,79,,,h,0,0.934278590474,,,2020_Feb_26_0910,59.9527072484,duckFrog,001,2,
frog,quackL.wav,-20,landoltCL.png,V2,frogFront.png,duckFront.png,HinCong,b,20,landoltCBottom.png,,,,,1,70,150,54,,,b,0,0.684142230632,,,2020_Feb_26_0910,59.9527072484,duckFrog,001,2,
frog,quackR.wav,20,landoltCTop.png,V2,duckFront.png,frogFront.png,HinCong,h,-20,landoltCR.png,,,,,1,71,151,26,,,h,0,0.767413371184,,,2020_Feb_26_0910,59.9527072484,duckFrog,001,2,
frog,ribbitL.wav,20,landoltCBottom.png,V2,duckFront.png,frogFront.png,Hcong,b,-20,landoltCL.png,,,,,1,72,152,16,,,h,0,0.834175807409,,,2020_Feb_26_0910,59.9527072484,duckFrog,001,2,
duck,wnL.wav,20,landoltCBottom.png,V2,frogFront.png,duckFront.png,LcongWN,b,-20,landoltCL.png,,,,,1,73,153,9,,,b,0,1.00073275085,,,2020_Feb_26_0910,59.9527072484,duckFrog,001,2,
frog,wnR.wav,-20,landoltCR.png,V2,frogFront.png,duckFront.png,HcongWN,b,20,landoltCBottom.png,,,,,1,74,154,21,,,b,0,1.0840863671,,,2020_Feb_26_0910,59.9527072484,duckFrog,001,2,
frog,ribbitL.wav,20,landoltCTop.png,V2,duckFront.png,frogFront.png,Hcong,h,-20,landoltCR.png,,,,,1,75,155,24,,,h,0,0.717139845074,,,2020_Feb_26_0910,59.9527072484,duckFrog,001,2,
duck,quackR.wav,-20,landoltCR.png,V2,duckFront.png,frogFront.png,Lcong,b,20,landoltCBottom.png,,,,,1,76,156,12,,,b,0,1.1671218104,,,2020_Feb_26_0910,59.9527072484,duckFrog,001,2,
frog,ribbitL.wav,20,landoltCBottom.png,V2,duckFront.png,frogFront.png,Hcong,b,-20,landoltCL.png,,,,,1,77,157,64,,,b,0,0.700237456724,,,2020_Feb_26_0910,59.9527072484,duckFrog,001,2,
frog,wnL.wav,-20,landoltCR.png,V2,frogFront.png,duckFront.png,HinCongWN,h,20,landoltCTop.png,,,,,1,78,158,47,,,h,0,1.21758448078,,,2020_Feb_26_0910,59.9527072484,duckFrog,001,2,
frog,quackR.wav,20,landoltCTop.png,V2,duckFront.png,frogFront.png,HinCong,h,-20,landoltCR.png,,,,,1,79,159,42,,,h,0,0.709499662029,,,2020_Feb_26_0910,59.9527072484,duckFrog,001,2,
frog,quackL.wav,-20,landoltCL.png,V2,frogFront.png,duckFront.png,HinCong,b,20,landoltCBottom.png,,,,,2,0,160,54,,,b,0,0.683957851608,,,2020_Feb_26_0910,59.9527072484,duckFrog,001,2,
frog,wnR.wav,20,landoltCBottom.png,V2,duckFront.png,frogFront.png,HinCongWN,b,-20,landoltCR.png,,,,,2,1,161,51,,,b,0,0.850685611396,,,2020_Feb_26_0910,59.9527072484,duckFrog,001,2,
frog,ribbitL.wav,20,landoltCBottom.png,V2,duckFront.png,frogFront.png,Hcong,b,-20,landoltCL.png,,,,,2,2,162,16,,,b,0,0.600694042238,,,2020_Feb_26_0910,59.9527072484,duckFrog,001,2,
frog,wnL.wav,20,landoltCBottom.png,V2,duckFront.png,frogFront.png,HcongWN,b,-20,landoltCR.png,,,,,2,3,163,17,,,b,0,0.567343431787,,,2020_Feb_26_0910,59.9527072484,duckFrog,001,2,
frog,ribbitR.wav,-20,landoltCL.png,V2,frogFront.png,duckFront.png,Hcong,b,20,landoltCBottom.png,,,,,2,4,164,68,,,b,0,0.600355342016,,,2020_Feb_26_0910,59.9527072484,duckFrog,001,2,
frog,quackR.wav,20,landoltCTop.png,V2,duckFront.png,frogFront.png,HinCong,h,-20,landoltCR.png,,,,,2,5,165,58,,,h,0,0.850632093818,,,2020_Feb_26_0910,59.9527072484,duckFrog,001,2,
frog,wnL.wav,20,landoltCBottom.png,V2,duckFront.png,frogFront.png,HcongWN,b,-20,landoltCR.png,,,,,2,6,166,49,,,b,0,0.584008656646,,,2020_Feb_26_0910,59.9527072484,duckFrog,001,2,
frog,ribbitR.wav,-20,landoltCL.png,V2,frogFront.png,duckFront.png,Hcong,h,20,landoltCTop.png,,,,,2,7,167,44,,,h,0,0.566797625885,,,2020_Feb_26_0910,59.9527072484,duckFrog,001,2,
frog,wnR.wav,-20,landoltCR.png,V2,frogFront.png,duckFront.png,HcongWN,b,20,landoltCBottom.png,,,,,2,8,168,69,,,b,0,0.383855874985,,,2020_Feb_26_0910,59.9527072484,duckFrog,001,2,
frog,wnR.wav,20,landoltCBottom.png,V2,duckFront.png,frogFront.png,HinCongWN,b,-20,landoltCR.png,,,,,2,9,169,19,,,b,0,0.483876915459,,,2020_Feb_26_0910,59.9527072484,duckFrog,001,2,
frog,wnR.wav,-20,landoltCR.png,V2,frogFront.png,duckFront.png,HcongWN,h,20,landoltCTop.png,,,,,2,10,170,77,,,h,0,0.350221914647,,,2020_Feb_26_0910,59.9527072484,duckFrog,001,2,
frog,quackR.wav,20,landoltCBottom.png,V2,duckFront.png,frogFront.png,HinCong,b,-20,landoltCL.png,,,,,2,11,171,18,,,b,0,0.800483197687,,,2020_Feb_26_0910,59.9527072484,duckFrog,001,2,
frog,quackL.wav,-20,landoltCL.png,V2,frogFront.png,duckFront.png,HinCong,h,20,landoltCTop.png,,,,,2,12,172,30,,,h,0,0.683511016556,,,2020_Feb_26_0910,59.9527072484,duckFrog,001,2,
frog,wnL.wav,20,landoltCTop.png,V2,duckFront.png,frogFront.png,HcongWN,h,-20,landoltCL.png,,,,,2,13,173,41,,,h,0,0.600170229867,,,2020_Feb_26_0910,59.9527072484,duckFrog,001,2,
frog,quackL.wav,-20,landoltCL.png,V2,frogFront.png,duckFront.png,HinCong,h,20,landoltCTop.png,,,,,2,14,174,46,,,h,0,0.566808256073,,,2020_Feb_26_0910,59.9527072484,duckFrog,001,2,
frog,quackR.wav,20,landoltCBottom.png,V2,duckFront.png,frogFront.png,HinCong,b,-20,landoltCL.png,,,,,2,15,175,66,,,b,0,0.683776771621,,,2020_Feb_26_0910,59.9527072484,duckFrog,001,2,
frog,wnL.wav,-20,landoltCR.png,V2,frogFront.png,duckFront.png,HinCongWN,b,20,landoltCBottom.png,,,,,2,16,176,55,,,b,0,0.533731464966,,,2020_Feb_26_0910,59.9527072484,duckFrog,001,2,
frog,wnL.wav,-20,landoltCR.png,V2,frogFront.png,duckFront.png,HinCongWN,h,20,landoltCTop.png,,,,,2,17,177,79,,,h,0,0.650885825758,,,2020_Feb_26_0910,59.9527072484,duckFrog,001,2,
frog,wnR.wav,-20,landoltCR.png,V2,frogFront.png,duckFront.png,HcongWN,b,20,landoltCBottom.png,,,,,2,18,178,53,,,b,0,0.700760535998,,,2020_Feb_26_0910,59.9527072484,duckFrog,001,2,
duck,quackR.wav,-20,landoltCR.png,V2,duckFront.png,frogFront.png,Lcong,h,20,landoltCTop.png,,,,,2,19,179,4,,,h,0,1.06769679437,,,2020_Feb_26_0910,59.9527072484,duckFrog,001,2,
frog,wnR.wav,-20,landoltCR.png,V2,frogFront.png,duckFront.png,HcongWN,b,20,landoltCBottom.png,,,,,2,20,180,37,,,b,0,0.667414324242,,,2020_Feb_26_0910,59.9527072484,duckFrog,001,2,
frog,wnL.wav,-20,landoltCR.png,V2,frogFront.png,duckFront.png,HinCongWN,b,20,landoltCBottom.png,,,,,2,21,181,23,,,b,0,0.900966102112,,,2020_Feb_26_0910,59.9527072484,duckFrog,001,2,
frog,wnL.wav,-20,landoltCR.png,V2,frogFront.png,duckFront.png,HinCongWN,h,20,landoltCTop.png,,,,,2,22,182,63,,,h,0,0.483935931392,,,2020_Feb_26_0910,59.9527072484,duckFrog,001,2,
frog,quackR.wav,20,landoltCTop.png,V2,duckFront.png,frogFront.png,HinCong,h,-20,landoltCR.png,,,,,2,23,183,26,,,b,0,0.40039353742,,,2020_Feb_26_0910,59.9527072484,duckFrog,001,2,
frog,quackR.wav,20,landoltCTop.png,V2,duckFront.png,frogFront.png,HinCong,h,-20,landoltCR.png,,,,,2,24,184,42,,,h,0,0.901099896044,,,2020_Feb_26_0910,59.9527072484,duckFrog,001,2,
frog,wnR.wav,-20,landoltCR.png,V2,frogFront.png,duckFront.png,HcongWN,h,20,landoltCTop.png,,,,,2,25,185,29,,,h,0,0.633825084049,,,2020_Feb_26_0910,59.9527072484,duckFrog,001,2,
frog,wnL.wav,-20,landoltCR.png,V2,frogFront.png,duckFront.png,HinCongWN,b,20,landoltCBottom.png,,,,,2,26,186,39,,,b,0,0.85093340509,,,2020_Feb_26_0910,59.9527072484,duckFrog,001,2,
duck,wnR.wav,20,landoltCTop.png,V2,frogFront.png,duckFront.png,LinCongWN,h,-20,landoltCR.png,,,,,2,27,187,3,,,h,0,1.55119725403,,,2020_Feb_26_0910,59.9527072484,duckFrog,001,2,
frog,wnL.wav,20,landoltCTop.png,V2,duckFront.png,frogFront.png,HcongWN,h,-20,landoltCL.png,,,,,2,28,188,57,,,h,0,0.667395629731,,,2020_Feb_26_0910,59.9527072484,duckFrog,001,2,
duck,wnL.wav,20,landoltCBottom.png,V2,frogFront.png,duckFront.png,LcongWN,b,-20,landoltCL.png,,,,,2,29,189,9,,,h,0,1.20134446402,,,2020_Feb_26_0910,59.9527072484,duckFrog,001,2,
duck,wnR.wav,20,landoltCBottom.png,V2,frogFront.png,duckFront.png,LinCongWN,b,-20,landoltCL.png,,,,,2,30,190,11,,,b,0,0.734152934165,,,2020_Feb_26_0910,59.9527072484,duckFrog,001,2,
duck,ribbitL.wav,-20,landoltCR.png,V2,duckFront.png,frogFront.png,LinCong,b,20,landoltCBottom.png,,,,,2,31,191,14,,,b,0,1.08415564669,,,2020_Feb_26_0910,59.9527072484,duckFrog,001,2,
duck,ribbitL.wav,-20,landoltCR.png,V2,duckFront.png,frogFront.png,LinCong,h,20,landoltCTop.png,,,,,2,32,192,6,,,h,0,1.16797699184,,,2020_Feb_26_0910,59.9527072484,duckFrog,001,2,
duck,quackL.wav,20,landoltCTop.png,V2,frogFront.png,duckFront.png,Lcong,h,-20,landoltCL.png,,,,,2,33,193,0,,,h,0,1.21759107884,,,2020_Feb_26_0910,59.9527072484,duckFrog,001,2,
frog,quackR.wav,20,landoltCBottom.png,V2,duckFront.png,frogFront.png,HinCong,b,-20,landoltCL.png,,,,,2,34,194,34,,,b,0,0.817517180592,,,2020_Feb_26_0910,59.9527072484,duckFrog,001,2,
frog,quackL.wav,-20,landoltCL.png,V2,frogFront.png,duckFront.png,HinCong,b,20,landoltCBottom.png,,,,,2,35,195,38,,,b,0,1.36766754299,,,2020_Feb_26_0910,59.9527072484,duckFrog,001,2,
frog,wnL.wav,20,landoltCTop.png,V2,duckFront.png,frogFront.png,HcongWN,h,-20,landoltCL.png,,,,,2,36,196,73,,,h,0,0.867288521287,,,2020_Feb_26_0910,59.9527072484,duckFrog,001,2,
frog,quackR.wav,20,landoltCTop.png,V2,duckFront.png,frogFront.png,HinCong,h,-20,landoltCR.png,,,,,2,37,197,74,,,h,0,1.5013837591,,,2020_Feb_26_0910,59.9527072484,duckFrog,001,2,
frog,quackL.wav,-20,landoltCL.png,V2,frogFront.png,duckFront.png,HinCong,b,20,landoltCBottom.png,,,,,2,38,198,22,,,b,0,1.38441451045,,,2020_Feb_26_0910,59.9527072484,duckFrog,001,2,
frog,wnL.wav,20,landoltCTop.png,V2,duckFront.png,frogFront.png,HcongWN,h,-20,landoltCL.png,,,,,2,39,199,25,,,h,0,0.900862366005,,,2020_Feb_26_0910,59.9527072484,duckFrog,001,2,
frog,ribbitR.wav,-20,landoltCL.png,V2,frogFront.png,duckFront.png,Hcong,b,20,landoltCBottom.png,,,,,2,40,200,20,,,b,0,0.683860713558,,,2020_Feb_26_0910,59.9527072484,duckFrog,001,2,
frog,ribbitL.wav,20,landoltCBottom.png,V2,duckFront.png,frogFront.png,Hcong,b,-20,landoltCL.png,,,,,2,41,201,32,,,b,0,0.683871343761,,,2020_Feb_26_0910,59.9527072484,duckFrog,001,2,
frog,wnR.wav,20,landoltCTop.png,V2,duckFront.png,frogFront.png,HinCongWN,h,-20,landoltCL.png,,,,,2,42,202,43,,,h,0,1.51813292592,,,2020_Feb_26_0910,59.9527072484,duckFrog,001,2,
duck,ribbitR.wav,20,landoltCTop.png,V2,frogFront.png,duckFront.png,LinCong,h,-20,landoltCL.png,,,,,2,43,203,2,,,h,0,1.25137092956,,,2020_Feb_26_0910,59.9527072484,duckFrog,001,2,
frog,wnL.wav,-20,landoltCR.png,V2,frogFront.png,duckFront.png,HinCongWN,h,20,landoltCTop.png,,,,,2,44,204,47,,,h,0,0.86731637975,,,2020_Feb_26_0910,59.9527072484,duckFrog,001,2,
frog,ribbitR.wav,-20,landoltCL.png,V2,frogFront.png,duckFront.png,Hcong,b,20,landoltCBottom.png,,,,,2,45,205,52,,,b,0,0.767563293688,,,2020_Feb_26_0910,59.9527072484,duckFrog,001,2,
frog,ribbitR.wav,-20,landoltCL.png,V2,frogFront.png,duckFront.png,Hcong,h,20,landoltCTop.png,,,,,2,46,206,76,,,h,0,0.684143696883,,,2020_Feb_26_0910,59.9527072484,duckFrog,001,2,
frog,quackL.wav,-20,landoltCL.png,V2,frogFront.png,duckFront.png,HinCong,h,20,landoltCTop.png,,,,,2,47,207,62,,,h,0,0.951042786197,,,2020_Feb_26_0910,59.9527072484,duckFrog,001,2,
frog,wnR.wav,20,landoltCTop.png,V2,duckFront.png,frogFront.png,HinCongWN,h,-20,landoltCL.png,,,,,2,48,208,27,,,h,0,0.867389691499,,,2020_Feb_26_0910,59.9527072484,duckFrog,001,2,
frog,ribbitR.wav,-20,landoltCL.png,V2,frogFront.png,duckFront.png,Hcong,b,20,landoltCBottom.png,,,,,2,49,209,36,,,b,0,0.967427227108,,,2020_Feb_26_0910,59.9527072484,duckFrog,001,2,
frog,wnR.wav,-20,landoltCR.png,V2,frogFront.png,duckFront.png,HcongWN,h,20,landoltCTop.png,,,,,2,50,210,45,,,h,0,0.767358020821,,,2020_Feb_26_0910,59.9527072484,duckFrog,001,2,
frog,ribbitL.wav,20,landoltCTop.png,V2,duckFront.png,frogFront.png,Hcong,h,-20,landoltCR.png,,,,,2,51,211,56,,,h,0,0.650786854909,,,2020_Feb_26_0910,59.9527072484,duckFrog,001,2,
frog,ribbitR.wav,-20,landoltCL.png,V2,frogFront.png,duckFront.png,Hcong,h,20,landoltCTop.png,,,,,2,52,212,28,,,h,0,0.650540894028,,,2020_Feb_26_0910,59.9527072484,duckFrog,001,2,
frog,quackL.wav,-20,landoltCL.png,V2,frogFront.png,duckFront.png,HinCong,b,20,landoltCBottom.png,,,,,2,53,213,70,,,b,0,1.05107848902,,,2020_Feb_26_0910,59.9527072484,duckFrog,001,2,
duck,wnR.wav,-20,landoltCL.png,V2,duckFront.png,frogFront.png,LcongWN,b,20,landoltCBottom.png,,,,,2,54,214,13,,,b,0,1.46817573997,,,2020_Feb_26_0910,59.9527072484,duckFrog,001,2,
frog,quackR.wav,20,landoltCBottom.png,V2,duckFront.png,frogFront.png,HinCong,b,-20,landoltCL.png,,,,,2,55,215,50,,,b,0,0.9340813819,,,2020_Feb_26_0910,59.9527072484,duckFrog,001,2,
frog,quackL.wav,-20,landoltCL.png,V2,frogFront.png,duckFront.png,HinCong,h,20,landoltCTop.png,,,,,2,56,216,78,,,h,0,0.667377668375,,,2020_Feb_26_0910,59.9527072484,duckFrog,001,2,
frog,ribbitL.wav,20,landoltCBottom.png,V2,duckFront.png,frogFront.png,Hcong,b,-20,landoltCL.png,,,,,2,57,217,64,,,b,0,0.617166823795,,,2020_Feb_26_0910,59.9527072484,duckFrog,001,2,
frog,ribbitL.wav,20,landoltCBottom.png,V2,duckFront.png,frogFront.png,Hcong,b,-20,landoltCL.png,,,,,2,58,218,48,,,b,0,0.617438443805,,,2020_Feb_26_0910,59.9527072484,duckFrog,001,2,
frog,wnL.wav,-20,landoltCR.png,V2,frogFront.png,duckFront.png,HinCongWN,h,20,landoltCTop.png,,,,,2,59,219,31,,,h,0,0.650541993688,,,2020_Feb_26_0910,59.9527072484,duckFrog,001,2,
frog,wnL.wav,20,landoltCBottom.png,V2,duckFront.png,frogFront.png,HcongWN,b,-20,landoltCR.png,,,,,2,60,220,33,,,b,0,0.683797665464,,,2020_Feb_26_0910,59.9527072484,duckFrog,001,2,
frog,wnL.wav,-20,landoltCR.png,V2,frogFront.png,duckFront.png,HinCongWN,b,20,landoltCBottom.png,,,,,2,61,221,71,,,b,0,0.533662918475,,,2020_Feb_26_0910,59.9527072484,duckFrog,001,2,
duck,wnL.wav,20,landoltCTop.png,V2,frogFront.png,duckFront.png,LcongWN,h,-20,landoltCR.png,,,,,2,62,222,1,,,h,0,1.35108919253,,,2020_Feb_26_0910,59.9527072484,duckFrog,001,2,
frog,wnL.wav,20,landoltCBottom.png,V2,duckFront.png,frogFront.png,HcongWN,b,-20,landoltCR.png,,,,,2,63,223,65,,,b,0,0.600703206219,,,2020_Feb_26_0910,59.9527072484,duckFrog,001,2,
frog,wnR.wav,20,landoltCBottom.png,V2,duckFront.png,frogFront.png,HinCongWN,b,-20,landoltCR.png,,,,,2,64,224,67,,,b,0,0.584054109931,,,2020_Feb_26_0910,59.9527072484,duckFrog,001,2,
frog,wnR.wav,20,landoltCTop.png,V2,duckFront.png,frogFront.png,HinCongWN,h,-20,landoltCL.png,,,,,2,65,225,75,,,h,0,0.56736432563,,,2020_Feb_26_0910,59.9527072484,duckFrog,001,2,
duck,quackR.wav,-20,landoltCR.png,V2,duckFront.png,frogFront.png,Lcong,b,20,landoltCBottom.png,,,,,2,66,226,12,,,s,0,4.83744221201,,,2020_Feb_26_0910,59.9527072484,duckFrog,001,2,
frog,wnR.wav,-20,landoltCR.png,V2,frogFront.png,duckFront.png,HcongWN,h,20,landoltCTop.png,,,,,2,67,227,61,,,h,0,1.43461985663,,,2020_Feb_26_0910,59.9527072484,duckFrog,001,2,
duck,wnL.wav,-20,landoltCL.png,V2,duckFront.png,frogFront.png,LinCongWN,h,20,landoltCTop.png,,,,,2,68,228,7,,,h,0,1.21794444142,,,2020_Feb_26_0910,59.9527072484,duckFrog,001,2,
duck,wnL.wav,-20,landoltCL.png,V2,duckFront.png,frogFront.png,LinCongWN,b,20,landoltCBottom.png,,,,,2,69,229,15,,,b,0,1.25126352785,,,2020_Feb_26_0910,59.9527072484,duckFrog,001,2,
frog,wnR.wav,-20,landoltCR.png,V2,frogFront.png,duckFront.png,HcongWN,b,20,landoltCBottom.png,,,,,2,70,230,21,,,b,0,0.717366378361,,,2020_Feb_26_0910,59.9527072484,duckFrog,001,2,
frog,wnR.wav,20,landoltCTop.png,V2,duckFront.png,frogFront.png,HinCongWN,h,-20,landoltCL.png,,,,,2,71,231,59,,,h,0,0.650465749481,,,2020_Feb_26_0910,59.9527072484,duckFrog,001,2,
duck,quackL.wav,20,landoltCBottom.png,V2,frogFront.png,duckFront.png,Lcong,b,-20,landoltCR.png,,,,,2,72,232,8,,,b,0,1.30119212221,,,2020_Feb_26_0910,59.9527072484,duckFrog,001,2,
frog,ribbitR.wav,-20,landoltCL.png,V2,frogFront.png,duckFront.png,Hcong,h,20,landoltCTop.png,,,,,2,73,233,60,,,h,0,1.284343618,,,2020_Feb_26_0910,59.9527072484,duckFrog,001,2,
frog,ribbitL.wav,20,landoltCTop.png,V2,duckFront.png,frogFront.png,Hcong,h,-20,landoltCR.png,,,,,2,74,234,72,,,h,0,0.717348050413,,,2020_Feb_26_0910,59.9527072484,duckFrog,001,2,
duck,wnR.wav,-20,landoltCL.png,V2,duckFront.png,frogFront.png,LcongWN,h,20,landoltCTop.png,,,,,2,75,235,5,,,h,0,1.33450094498,,,2020_Feb_26_0910,59.9527072484,duckFrog,001,2,
frog,ribbitL.wav,20,landoltCTop.png,V2,duckFront.png,frogFront.png,Hcong,h,-20,landoltCR.png,,,,,2,76,236,24,,,h,0,0.750662738137,,,2020_Feb_26_0910,59.9527072484,duckFrog,001,2,
frog,ribbitL.wav,20,landoltCTop.png,V2,duckFront.png,frogFront.png,Hcong,h,-20,landoltCR.png,,,,,2,77,237,40,,,h,0,0.584225292841,,,2020_Feb_26_0910,59.9527072484,duckFrog,001,2,
duck,ribbitR.wav,20,landoltCBottom.png,V2,frogFront.png,duckFront.png,LinCong,b,-20,landoltCR.png,,,,,2,78,238,10,,,b,0,1.35153199545,,,2020_Feb_26_0910,59.9527072484,duckFrog,001,2,
frog,wnR.wav,20,landoltCBottom.png,V2,duckFront.png,frogFront.png,HinCongWN,b,-20,landoltCR.png,,,,,2,79,239,35,,,b,0,0.73415989877,,,2020_Feb_26_0910,59.9527072484,duckFrog,001,2,
frog,ribbitR.wav,-20,landoltCL.png,V2,frogFront.png,duckFront.png,Hcong,b,20,landoltCBottom.png,,,,,3,0,240,36,,,b,0,0.650542726828,,,2020_Feb_26_0910,59.9527072484,duckFrog,001,2,
frog,quackL.wav,-20,landoltCL.png,V2,frogFront.png,duckFront.png,HinCong,b,20,landoltCBottom.png,,,,,3,1,241,70,,,b,0,0.934342005145,,,2020_Feb_26_0910,59.9527072484,duckFrog,001,2,
frog,wnL.wav,20,landoltCTop.png,V2,duckFront.png,frogFront.png,HcongWN,h,-20,landoltCL.png,,,,,3,2,242,25,,,h,0,0.800651081561,,,2020_Feb_26_0910,59.9527072484,duckFrog,001,2,
frog,wnR.wav,20,landoltCBottom.png,V2,duckFront.png,frogFront.png,HinCongWN,b,-20,landoltCR.png,,,,,3,3,243,19,,,b,0,0.617380527532,,,2020_Feb_26_0910,59.9527072484,duckFrog,001,2,
frog,wnR.wav,-20,landoltCR.png,V2,frogFront.png,duckFront.png,HcongWN,b,20,landoltCBottom.png,,,,,3,4,244,53,,,b,0,0.516969102042,,,2020_Feb_26_0910,59.9527072484,duckFrog,001,2,
duck,wnL.wav,-20,landoltCL.png,V2,duckFront.png,frogFront.png,LinCongWN,b,20,landoltCBottom.png,,,,,3,5,245,15,,,b,0,1.25118105214,,,2020_Feb_26_0910,59.9527072484,duckFrog,001,2,
frog,wnL.wav,-20,landoltCR.png,V2,frogFront.png,duckFront.png,HinCongWN,h,20,landoltCTop.png,,,,,3,6,246,47,,,b,0,1.41794033597,,,2020_Feb_26_0910,59.9527072484,duckFrog,001,2,
frog,wnL.wav,-20,landoltCR.png,V2,frogFront.png,duckFront.png,HinCongWN,h,20,landoltCTop.png,,,,,3,7,247,31,,,h,0,0.834134386285,,,2020_Feb_26_0910,59.9527072484,duckFrog,001,2,
frog,wnL.wav,20,landoltCTop.png,V2,duckFront.png,frogFront.png,HcongWN,h,-20,landoltCL.png,,,,,3,8,248,57,,,h,0,0.750617651414,,,2020_Feb_26_0910,59.9527072484,duckFrog,001,2,
frog,ribbitR.wav,-20,landoltCL.png,V2,frogFront.png,duckFront.png,Hcong,h,20,landoltCTop.png,,,,,3,9,249,28,,,h,0,0.717197761347,,,2020_Feb_26_0910,59.9527072484,duckFrog,001,2,
frog,wnR.wav,20,landoltCBottom.png,V2,duckFront.png,frogFront.png,HinCongWN,b,-20,landoltCR.png,,,,,3,10,250,35,,,b,0,0.800583634773,,,2020_Feb_26_0910,59.9527072484,duckFrog,001,2,
frog,quackR.wav,20,landoltCBottom.png,V2,duckFront.png,frogFront.png,HinCong,b,-20,landoltCL.png,,,,,3,11,251,18,,,b,0,0.750930692535,,,2020_Feb_26_0910,59.9527072484,duckFrog,001,2,
frog,quackR.wav,20,landoltCBottom.png,V2,duckFront.png,frogFront.png,HinCong,b,-20,landoltCL.png,,,,,3,12,252,34,,,b,0,0.583961004013,,,2020_Feb_26_0910,59.9527072484,duckFrog,001,2,
frog,quackL.wav,-20,landoltCL.png,V2,frogFront.png,duckFront.png,HinCong,b,20,landoltCBottom.png,,,,,3,13,253,54,,,b,0,0.66734761055,,,2020_Feb_26_0910,59.9527072484,duckFrog,001,2,
duck,quackL.wav,20,landoltCTop.png,V2,frogFront.png,duckFront.png,Lcong,h,-20,landoltCL.png,,,,,3,14,254,0,,,h,0,1.15075936301,,,2020_Feb_26_0910,59.9527072484,duckFrog,001,2,
duck,wnR.wav,-20,landoltCL.png,V2,duckFront.png,frogFront.png,LcongWN,h,20,landoltCTop.png,,,,,3,15,255,5,,,h,0,1.11764298355,,,2020_Feb_26_0910,59.9527072484,duckFrog,001,2,
frog,ribbitR.wav,-20,landoltCL.png,V2,frogFront.png,duckFront.png,Hcong,h,20,landoltCTop.png,,,,,3,16,256,76,,,h,0,0.634175880725,,,2020_Feb_26_0910,59.9527072484,duckFrog,001,2,
duck,quackR.wav,-20,landoltCR.png,V2,duckFront.png,frogFront.png,Lcong,b,20,landoltCBottom.png,,,,,3,17,257,12,,,h,0,0.567332801584,,,2020_Feb_26_0910,59.9527072484,duckFrog,001,2,
frog,ribbitR.wav,-20,landoltCL.png,V2,frogFront.png,duckFront.png,Hcong,h,20,landoltCTop.png,,,,,3,18,258,60,,,h,0,0.667374002776,,,2020_Feb_26_0910,59.9527072484,duckFrog,001,2,
frog,wnL.wav,20,landoltCBottom.png,V2,duckFront.png,frogFront.png,HcongWN,b,-20,landoltCR.png,,,,,3,19,259,33,,,b,0,0.750287748582,,,2020_Feb_26_0910,59.9527072484,duckFrog,001,2,
duck,ribbitL.wav,-20,landoltCR.png,V2,duckFront.png,frogFront.png,LinCong,h,20,landoltCTop.png,,,,,3,20,260,6,,,h,0,0.783953232967,,,2020_Feb_26_0910,59.9527072484,duckFrog,001,2,
frog,wnL.wav,-20,landoltCR.png,V2,frogFront.png,duckFront.png,HinCongWN,b,20,landoltCBottom.png,,,,,3,21,261,39,,,b,0,0.684110706599,,,2020_Feb_26_0910,59.9527072484,duckFrog,001,2,
duck,wnR.wav,20,landoltCBottom.png,V2,frogFront.png,duckFront.png,LinCongWN,b,-20,landoltCL.png,,,,,3,22,262,11,,,b,0,0.91733551411,,,2020_Feb_26_0910,59.9527072484,duckFrog,001,2,
frog,quackL.wav,-20,landoltCL.png,V2,frogFront.png,duckFront.png,HinCong,h,20,landoltCTop.png,,,,,3,23,263,46,,,h,0,0.517068806002,,,2020_Feb_26_0910,59.9527072484,duckFrog,001,2,
frog,quackR.wav,20,landoltCTop.png,V2,duckFront.png,frogFront.png,HinCong,h,-20,landoltCR.png,,,,,3,24,264,42,,,h,0,0.700446761752,,,2020_Feb_26_0910,59.9527072484,duckFrog,001,2,
frog,wnL.wav,-20,landoltCR.png,V2,frogFront.png,duckFront.png,HinCongWN,b,20,landoltCBottom.png,,,,,3,25,265,55,,,b,0,0.616933325902,,,2020_Feb_26_0910,59.9527072484,duckFrog,001,2,
frog,ribbitL.wav,20,landoltCBottom.png,V2,duckFront.png,frogFront.png,Hcong,b,-20,landoltCL.png,,,,,3,26,266,48,,,b,0,0.70023379114,,,2020_Feb_26_0910,59.9527072484,duckFrog,001,2,
duck,ribbitR.wav,20,landoltCBottom.png,V2,frogFront.png,duckFront.png,LinCong,b,-20,landoltCR.png,,,,,3,27,267,10,,,b,0,1.13446876114,,,2020_Feb_26_0910,59.9527072484,duckFrog,001,2,
frog,wnR.wav,-20,landoltCR.png,V2,frogFront.png,duckFront.png,HcongWN,h,20,landoltCTop.png,,,,,3,28,268,61,,,h,0,0.517021519932,,,2020_Feb_26_0910,59.9527072484,duckFrog,001,2,
frog,wnR.wav,20,landoltCBottom.png,V2,duckFront.png,frogFront.png,HinCongWN,b,-20,landoltCR.png,,,,,3,29,269,67,,,b,0,0.684015767896,,,2020_Feb_26_0910,59.9527072484,duckFrog,001,2,
frog,wnR.wav,-20,landoltCR.png,V2,frogFront.png,duckFront.png,HcongWN,b,20,landoltCBottom.png,,,,,3,30,270,69,,,b,0,0.550110774042,,,2020_Feb_26_0910,59.9527072484,duckFrog,001,2,
frog,quackR.wav,20,landoltCBottom.png,V2,duckFront.png,frogFront.png,HinCong,b,-20,landoltCL.png,,,,,3,31,271,50,,,b,0,0.700470221505,,,2020_Feb_26_0910,59.9527072484,duckFrog,001,2,
frog,wnL.wav,20,landoltCBottom.png,V2,duckFront.png,frogFront.png,HcongWN,b,-20,landoltCR.png,,,,,3,32,272,49,,,b,0,1.16776841994,,,2020_Feb_26_0910,59.9527072484,duckFrog,001,2,
duck,wnL.wav,20,landoltCBottom.png,V2,frogFront.png,duckFront.png,LcongWN,b,-20,landoltCL.png,,,,,3,33,273,9,,,b,0,0.750814859988,,,2020_Feb_26_0910,59.9527072484,duckFrog,001,2,
duck,wnR.wav,20,landoltCTop.png,V2,frogFront.png,duckFront.png,LinCongWN,h,-20,landoltCR.png,,,,,3,34,274,3,,,h,0,0.984335480389,,,2020_Feb_26_0910,59.9527072484,duckFrog,001,2,
frog,ribbitL.wav,20,landoltCTop.png,V2,duckFront.png,frogFront.png,Hcong,h,-20,landoltCR.png,,,,,3,35,275,72,,,h,0,0.784350949179,,,2020_Feb_26_0910,59.9527072484,duckFrog,001,2,
frog,quackL.wav,-20,landoltCL.png,V2,frogFront.png,duckFront.png,HinCong,b,20,landoltCBottom.png,,,,,3,36,276,22,,,b,0,0.550409885953,,,2020_Feb_26_0910,59.9527072484,duckFrog,001,2,
frog,wnR.wav,-20,landoltCR.png,V2,frogFront.png,duckFront.png,HcongWN,b,20,landoltCBottom.png,,,,,3,37,277,21,,,b,0,0.567410512027,,,2020_Feb_26_0910,59.9527072484,duckFrog,001,2,
frog,quackR.wav,20,landoltCTop.png,V2,duckFront.png,frogFront.png,HinCong,h,-20,landoltCR.png,,,,,3,38,278,26,,,h,0,0.650476746247,,,2020_Feb_26_0910,59.9527072484,duckFrog,001,2,
frog,wnR.wav,-20,landoltCR.png,V2,frogFront.png,duckFront.png,HcongWN,h,20,landoltCTop.png,,,,,3,39,279,45,,,h,0,0.733973320399,,,2020_Feb_26_0910,59.9527072484,duckFrog,001,2,
frog,ribbitR.wav,-20,landoltCL.png,V2,frogFront.png,duckFront.png,Hcong,b,20,landoltCBottom.png,,,,,3,40,280,68,,,b,0,0.750808628509,,,2020_Feb_26_0910,59.9527072484,duckFrog,001,2,
duck,wnL.wav,20,landoltCTop.png,V2,frogFront.png,duckFront.png,LcongWN,h,-20,landoltCR.png,,,,,3,41,281,1,,,h,0,1.0841563798,,,2020_Feb_26_0910,59.9527072484,duckFrog,001,2,
frog,quackL.wav,-20,landoltCL.png,V2,frogFront.png,duckFront.png,HinCong,h,20,landoltCTop.png,,,,,3,42,282,62,,,h,0,0.63387640228,,,2020_Feb_26_0910,59.9527072484,duckFrog,001,2,
duck,ribbitL.wav,-20,landoltCR.png,V2,duckFront.png,frogFront.png,LinCong,b,20,landoltCBottom.png,,,,,3,43,283,14,,,b,0,1.11781636583,,,2020_Feb_26_0910,59.9527072484,duckFrog,001,2,
frog,wnR.wav,20,landoltCTop.png,V2,duckFront.png,frogFront.png,HinCongWN,h,-20,landoltCL.png,,,,,3,44,284,43,,,h,0,1.36775515051,,,2020_Feb_26_0910,59.9527072484,duckFrog,001,2,
frog,ribbitL.wav,20,landoltCBottom.png,V2,duckFront.png,frogFront.png,Hcong,b,-20,landoltCL.png,,,,,3,45,285,32,,,b,0,0.800856354443,,,2020_Feb_26_0910,59.9527072484,duckFrog,001,2,
duck,quackR.wav,-20,landoltCR.png,V2,duckFront.png,frogFront.png,Lcong,h,20,landoltCTop.png,,,,,3,46,286,4,,,h,0,1.26761167945,,,2020_Feb_26_0910,59.9527072484,duckFrog,001,2,
frog,ribbitR.wav,-20,landoltCL.png,V2,frogFront.png,duckFront.png,Hcong,h,20,landoltCTop.png,,,,,3,47,287,44,,,h,0,0.584025884906,,,2020_Feb_26_0910,59.9527072484,duckFrog,001,2,
duck,wnR.wav,-20,landoltCL.png,V2,duckFront.png,frogFront.png,LcongWN,b,20,landoltCBottom.png,,,,,3,48,288,13,,,b,0,1.15110172884,,,2020_Feb_26_0910,59.9527072484,duckFrog,001,2,
frog,wnL.wav,-20,landoltCR.png,V2,frogFront.png,duckFront.png,HinCongWN,b,20,landoltCBottom.png,,,,,3,49,289,71,,,b,0,0.700663031384,,,2020_Feb_26_0910,59.9527072484,duckFrog,001,2,
frog,quackL.wav,-20,landoltCL.png,V2,frogFront.png,duckFront.png,HinCong,b,20,landoltCBottom.png,,,,,3,50,290,38,,,b,0,0.433929993145,,,2020_Feb_26_0910,59.9527072484,duckFrog,001,2,
frog,wnR.wav,-20,landoltCR.png,V2,frogFront.png,duckFront.png,HcongWN,h,20,landoltCTop.png,,,,,3,51,291,77,,,h,0,0.500630480965,,,2020_Feb_26_0910,59.9527072484,duckFrog,001,2,
frog,quackL.wav,-20,landoltCL.png,V2,frogFront.png,duckFront.png,HinCong,h,20,landoltCTop.png,,,,,3,52,292,30,,,h,0,0.534049271344,,,2020_Feb_26_0910,59.9527072484,duckFrog,001,2,
frog,wnR.wav,-20,landoltCR.png,V2,frogFront.png,duckFront.png,HcongWN,h,20,landoltCTop.png,,,,,3,53,293,29,,,h,0,0.851104221438,,,2020_Feb_26_0910,59.9527072484,duckFrog,001,2,
frog,ribbitR.wav,-20,landoltCL.png,V2,frogFront.png,duckFront.png,Hcong,b,20,landoltCBottom.png,,,,,3,54,294,52,,,b,0,0.951016027408,,,2020_Feb_26_0910,59.9527072484,duckFrog,001,2,
frog,ribbitR.wav,-20,landoltCL.png,V2,frogFront.png,duckFront.png,Hcong,b,20,landoltCBottom.png,,,,,3,55,295,20,,,b,0,0.55076398165,,,2020_Feb_26_0910,59.9527072484,duckFrog,001,2,
frog,quackR.wav,20,landoltCTop.png,V2,duckFront.png,frogFront.png,HinCong,h,-20,landoltCR.png,,,,,3,56,296,74,,,h,0,0.633810788262,,,2020_Feb_26_0910,59.9527072484,duckFrog,001,2,
frog,wnL.wav,-20,landoltCR.png,V2,frogFront.png,duckFront.png,HinCongWN,h,20,landoltCTop.png,,,,,3,57,297,63,,,h,0,0.750618017977,,,2020_Feb_26_0910,59.9527072484,duckFrog,001,2,
duck,ribbitR.wav,20,landoltCTop.png,V2,frogFront.png,duckFront.png,LinCong,h,-20,landoltCL.png,,,,,3,58,298,2,,,h,0,1.25087680842,,,2020_Feb_26_0910,59.9527072484,duckFrog,001,2,
frog,wnR.wav,20,landoltCTop.png,V2,duckFront.png,frogFront.png,HinCongWN,h,-20,landoltCL.png,,,,,3,59,299,27,,,h,0,0.617349003471,,,2020_Feb_26_0910,59.9527072484,duckFrog,001,2,
frog,quackR.wav,20,landoltCTop.png,V2,duckFront.png,frogFront.png,HinCong,h,-20,landoltCR.png,,,,,3,60,300,58,,,h,0,0.53390887937,,,2020_Feb_26_0910,59.9527072484,duckFrog,001,2,
frog,ribbitL.wav,20,landoltCBottom.png,V2,duckFront.png,frogFront.png,Hcong,b,-20,landoltCL.png,,,,,3,61,301,64,,,b,0,0.621027786619,,,2020_Feb_26_0910,59.9527072484,duckFrog,001,2,
frog,wnL.wav,-20,landoltCR.png,V2,frogFront.png,duckFront.png,HinCongWN,b,20,landoltCBottom.png,,,,,3,62,302,23,,,h,0,0.500178880655,,,2020_Feb_26_0910,59.9527072484,duckFrog,001,2,
duck,quackL.wav,20,landoltCBottom.png,V2,frogFront.png,duckFront.png,Lcong,b,-20,landoltCR.png,,,,,3,63,303,8,,,b,0,1.33438364622,,,2020_Feb_26_0910,59.9527072484,duckFrog,001,2,
frog,wnR.wav,20,landoltCTop.png,V2,duckFront.png,frogFront.png,HinCongWN,h,-20,landoltCL.png,,,,,3,64,304,59,,,h,0,0.584011222556,,,2020_Feb_26_0910,59.9527072484,duckFrog,001,2,
frog,wnL.wav,20,landoltCBottom.png,V2,duckFront.png,frogFront.png,HcongWN,b,-20,landoltCR.png,,,,,3,65,305,65,,,b,0,0.584093698257,,,2020_Feb_26_0910,59.9527072484,duckFrog,001,2,
frog,wnL.wav,-20,landoltCR.png,V2,frogFront.png,duckFront.png,HinCongWN,h,20,landoltCTop.png,,,,,3,66,306,79,,,h,0,0.417052530785,,,2020_Feb_26_0910,59.9527072484,duckFrog,001,2,
frog,quackL.wav,-20,landoltCL.png,V2,frogFront.png,duckFront.png,HinCong,h,20,landoltCTop.png,,,,,3,67,307,78,,,h,0,0.517245853844,,,2020_Feb_26_0910,59.9527072484,duckFrog,001,2,
frog,wnL.wav,20,landoltCBottom.png,V2,duckFront.png,frogFront.png,HcongWN,b,-20,landoltCR.png,,,,,3,68,308,17,,,b,0,0.450343392193,,,2020_Feb_26_0910,59.9527072484,duckFrog,001,2,
frog,wnR.wav,20,landoltCBottom.png,V2,duckFront.png,frogFront.png,HinCongWN,b,-20,landoltCR.png,,,,,3,69,309,51,,,b,0,0.567398049025,,,2020_Feb_26_0910,59.9527072484,duckFrog,001,2,
frog,ribbitL.wav,20,landoltCTop.png,V2,duckFront.png,frogFront.png,Hcong,h,-20,landoltCR.png,,,,,3,70,310,40,,,h,0,0.667508163257,,,2020_Feb_26_0910,59.9527072484,duckFrog,001,2,
frog,wnR.wav,-20,landoltCR.png,V2,frogFront.png,duckFront.png,HcongWN,b,20,landoltCBottom.png,,,,,3,71,311,37,,,b,0,0.450304170416,,,2020_Feb_26_0910,59.9527072484,duckFrog,001,2,
frog,ribbitL.wav,20,landoltCBottom.png,V2,duckFront.png,frogFront.png,Hcong,b,-20,landoltCL.png,,,,,3,72,312,16,,,b,0,0.650457685188,,,2020_Feb_26_0910,59.9527072484,duckFrog,001,2,
frog,ribbitL.wav,20,landoltCTop.png,V2,duckFront.png,frogFront.png,Hcong,h,-20,landoltCR.png,,,,,3,73,313,24,,,h,0,0.5672836827,,,2020_Feb_26_0910,59.9527072484,duckFrog,001,2,
frog,quackR.wav,20,landoltCBottom.png,V2,duckFront.png,frogFront.png,HinCong,b,-20,landoltCL.png,,,,,3,74,314,66,,,b,0,0.634050517649,,,2020_Feb_26_0910,59.9527072484,duckFrog,001,2,
frog,wnL.wav,20,landoltCTop.png,V2,duckFront.png,frogFront.png,HcongWN,h,-20,landoltCL.png,,,,,3,75,315,73,,,h,0,0.484093918203,,,2020_Feb_26_0910,59.9527072484,duckFrog,001,2,
duck,wnL.wav,-20,landoltCL.png,V2,duckFront.png,frogFront.png,LinCongWN,h,20,landoltCTop.png,,,,,3,76,316,7,,,h,0,1.16765258739,,,2020_Feb_26_0910,59.9527072484,duckFrog,001,2,
frog,wnL.wav,20,landoltCTop.png,V2,duckFront.png,frogFront.png,HcongWN,h,-20,landoltCL.png,,,,,3,77,317,41,,,h,0,0.583939377058,,,2020_Feb_26_0910,59.9527072484,duckFrog,001,2,
frog,ribbitL.wav,20,landoltCTop.png,V2,duckFront.png,frogFront.png,Hcong,h,-20,landoltCR.png,,,,,3,78,318,56,,,h,0,0.417364472261,,,2020_Feb_26_0910,59.9527072484,duckFrog,001,2,
frog,wnR.wav,20,landoltCTop.png,V2,duckFront.png,frogFront.png,HinCongWN,h,-20,landoltCL.png,,,,,3,79,319,75,,,h,0,0.450741474939,,,2020_Feb_26_0910,59.9527072484,duckFrog,001,2,
frog,wnL.wav,20,landoltCTop.png,V2,duckFront.png,frogFront.png,HcongWN,h,-20,landoltCL.png,,,,,4,0,320,57,,,h,0,0.567576929665,,,2020_Feb_26_0910,59.9527072484,duckFrog,001,2,
frog,wnR.wav,20,landoltCBottom.png,V2,duckFront.png,frogFront.png,HinCongWN,b,-20,landoltCR.png,,,,,4,1,321,35,,,b,0,0.433947221405,,,2020_Feb_26_0910,59.9527072484,duckFrog,001,2,
frog,wnR.wav,20,landoltCTop.png,V2,duckFront.png,frogFront.png,HinCongWN,h,-20,landoltCL.png,,,,,4,2,322,43,,,h,0,0.484001178847,,,2020_Feb_26_0910,59.9527072484,duckFrog,001,2,
frog,quackR.wav,20,landoltCBottom.png,V2,duckFront.png,frogFront.png,HinCong,b,-20,landoltCL.png,,,,,4,3,323,18,,,b,0,0.484017673996,,,2020_Feb_26_0910,59.9527072484,duckFrog,001,2,
duck,ribbitR.wav,20,landoltCBottom.png,V2,frogFront.png,duckFront.png,LinCong,b,-20,landoltCR.png,,,,,4,4,324,10,,,b,0,1.18452821695,,,2020_Feb_26_0910,59.9527072484,duckFrog,001,2,
frog,ribbitL.wav,20,landoltCBottom.png,V2,duckFront.png,frogFront.png,Hcong,b,-20,landoltCL.png,,,,,4,5,325,48,,,b,0,0.650786854909,,,2020_Feb_26_0910,59.9527072484,duckFrog,001,2,
frog,ribbitR.wav,-20,landoltCL.png,V2,frogFront.png,duckFront.png,Hcong,b,20,landoltCBottom.png,,,,,4,6,326,68,,,b,0,0.617031563641,,,2020_Feb_26_0910,59.9527072484,duckFrog,001,2,
frog,ribbitL.wav,20,landoltCBottom.png,V2,duckFront.png,frogFront.png,Hcong,b,-20,landoltCL.png,,,,,4,7,327,32,,,b,0,0.650396836456,,,2020_Feb_26_0910,59.9527072484,duckFrog,001,2,
frog,wnR.wav,-20,landoltCR.png,V2,frogFront.png,duckFront.png,HcongWN,b,20,landoltCBottom.png,,,,,4,8,328,37,,,b,0,0.467018514144,,,2020_Feb_26_0910,59.9527072484,duckFrog,001,2,
duck,wnR.wav,-20,landoltCL.png,V2,duckFront.png,frogFront.png,LcongWN,h,20,landoltCTop.png,,,,,4,9,329,5,,,h,0,1.06770779114,,,2020_Feb_26_0910,59.9527072484,duckFrog,001,2,
frog,ribbitL.wav,20,landoltCBottom.png,V2,duckFront.png,frogFront.png,Hcong,b,-20,landoltCL.png,,,,,4,10,330,64,,,b,0,0.60041839011,,,2020_Feb_26_0910,59.9527072484,duckFrog,001,2,
frog,quackL.wav,-20,landoltCL.png,V2,frogFront.png,duckFront.png,HinCong,h,20,landoltCTop.png,,,,,4,11,331,78,,,h,0,0.617293653107,,,2020_Feb_26_0910,59.9527072484,duckFrog,001,2,
frog,quackL.wav,-20,landoltCL.png,V2,frogFront.png,duckFront.png,HinCong,b,20,landoltCBottom.png,,,,,4,12,332,38,,,b,0,0.667379134597,,,2020_Feb_26_0910,59.9527072484,duckFrog,001,2,
frog,ribbitL.wav,20,landoltCTop.png,V2,duckFront.png,frogFront.png,Hcong,h,-20,landoltCR.png,,,,,4,13,333,24,,,h,0,0.750704892387,,,2020_Feb_26_0910,59.9527072484,duckFrog,001,2,
frog,wnR.wav,-20,landoltCR.png,V2,frogFront.png,duckFront.png,HcongWN,h,20,landoltCTop.png,,,,,4,14,334,77,,,h,0,0.517028484537,,,2020_Feb_26_0910,59.9527072484,duckFrog,001,2,
frog,wnL.wav,20,landoltCBottom.png,V2,duckFront.png,frogFront.png,HcongWN,b,-20,landoltCR.png,,,,,4,15,335,33,,,b,0,0.733659179576,,,2020_Feb_26_0910,59.9527072484,duckFrog,001,2,
frog,wnR.wav,-20,landoltCR.png,V2,frogFront.png,duckFront.png,HcongWN,b,20,landoltCBottom.png,,,,,4,16,336,21,,,b,0,0.450279244425,,,2020_Feb_26_0910,59.9527072484,duckFrog,001,2,
frog,wnL.wav,20,landoltCTop.png,V2,duckFront.png,frogFront.png,HcongWN,h,-20,landoltCL.png,,,,,4,17,337,41,,,h,0,0.483808368968,,,2020_Feb_26_0910,59.9527072484,duckFrog,001,2,
frog,wnL.wav,-20,landoltCR.png,V2,frogFront.png,duckFront.png,HinCongWN,h,20,landoltCTop.png,,,,,4,18,338,79,,,h,0,0.500334301541,,,2020_Feb_26_0910,59.9527072484,duckFrog,001,2,
frog,wnR.wav,20,landoltCBottom.png,V2,duckFront.png,frogFront.png,HinCongWN,b,-20,landoltCR.png,,,,,4,19,339,19,,,b,0,0.63375873692,,,2020_Feb_26_0910,59.9527072484,duckFrog,001,2,
frog,ribbitL.wav,20,landoltCBottom.png,V2,duckFront.png,frogFront.png,Hcong,b,-20,landoltCL.png,,,,,4,20,340,16,,,b,0,0.634231964214,,,2020_Feb_26_0910,59.9527072484,duckFrog,001,2,
frog,wnR.wav,20,landoltCBottom.png,V2,duckFront.png,frogFront.png,HinCongWN,b,-20,landoltCR.png,,,,,4,21,341,51,,,b,0,0.567300910974,,,2020_Feb_26_0910,59.9527072484,duckFrog,001,2,
frog,wnR.wav,20,landoltCBottom.png,V2,duckFront.png,frogFront.png,HinCongWN,b,-20,landoltCR.png,,,,,4,22,342,67,,,b,0,0.46725751042,,,2020_Feb_26_0910,59.9527072484,duckFrog,001,2,
frog,wnL.wav,-20,landoltCR.png,V2,frogFront.png,duckFront.png,HinCongWN,b,20,landoltCBottom.png,,,,,4,23,343,55,,,b,0,0.767274445432,,,2020_Feb_26_0910,59.9527072484,duckFrog,001,2,
frog,wnR.wav,20,landoltCTop.png,V2,duckFront.png,frogFront.png,HinCongWN,h,-20,landoltCL.png,,,,,4,24,344,75,,,h,0,0.667138672099,,,2020_Feb_26_0910,59.9527072484,duckFrog,001,2,
frog,ribbitL.wav,20,landoltCTop.png,V2,duckFront.png,frogFront.png,Hcong,h,-20,landoltCR.png,,,,,4,25,345,40,,,b,0,0.500625349145,,,2020_Feb_26_0910,59.9527072484,duckFrog,001,2,
frog,ribbitR.wav,-20,landoltCL.png,V2,frogFront.png,duckFront.png,Hcong,h,20,landoltCTop.png,,,,,4,26,346,28,,,h,0,0.500575497164,,,2020_Feb_26_0910,59.9527072484,duckFrog,001,2,
frog,ribbitR.wav,-20,landoltCL.png,V2,frogFront.png,duckFront.png,Hcong,h,20,landoltCTop.png,,,,,4,27,347,44,,,h,0,0.567332801569,,,2020_Feb_26_0910,59.9527072484,duckFrog,001,2,
frog,wnR.wav,-20,landoltCR.png,V2,frogFront.png,duckFront.png,HcongWN,h,20,landoltCTop.png,,,,,4,28,348,45,,,h,0,0.584122656408,,,2020_Feb_26_0910,59.9527072484,duckFrog,001,2,
duck,wnR.wav,20,landoltCTop.png,V2,frogFront.png,duckFront.png,LinCongWN,h,-20,landoltCR.png,,,,,4,29,349,3,,,h,0,0.416755251688,,,2020_Feb_26_0910,59.9527072484,duckFrog,001,2,
duck,wnR.wav,-20,landoltCL.png,V2,duckFront.png,frogFront.png,LcongWN,b,20,landoltCBottom.png,,,,,4,30,350,13,,,b,0,0.867353035617,,,2020_Feb_26_0910,59.9527072484,duckFrog,001,2,
duck,wnL.wav,-20,landoltCL.png,V2,duckFront.png,frogFront.png,LinCongWN,h,20,landoltCTop.png,,,,,4,31,351,7,,,h,0,0.917612999052,,,2020_Feb_26_0910,59.9527072484,duckFrog,001,2,
frog,quackR.wav,20,landoltCBottom.png,V2,duckFront.png,frogFront.png,HinCong,b,-20,landoltCL.png,,,,,4,32,352,50,,,b,0,1.23397698598,,,2020_Feb_26_0910,59.9527072484,duckFrog,001,2,
frog,wnR.wav,-20,landoltCR.png,V2,frogFront.png,duckFront.png,HcongWN,b,20,landoltCBottom.png,,,,,4,33,353,53,,,b,0,0.516780690858,,,2020_Feb_26_0910,59.9527072484,duckFrog,001,2,
frog,wnL.wav,-20,landoltCR.png,V2,frogFront.png,duckFront.png,HinCongWN,b,20,landoltCBottom.png,,,,,4,34,354,71,,,b,0,0.433831022296,,,2020_Feb_26_0910,59.9527072484,duckFrog,001,2,
duck,ribbitL.wav,-20,landoltCR.png,V2,duckFront.png,frogFront.png,LinCong,h,20,landoltCTop.png,,,,,4,35,355,6,,,h,0,1.06774041486,,,2020_Feb_26_0910,59.9527072484,duckFrog,001,2,
duck,ribbitR.wav,20,landoltCTop.png,V2,frogFront.png,duckFront.png,LinCong,h,-20,landoltCL.png,,,,,4,36,356,2,,,h,0,1.03410058958,,,2020_Feb_26_0910,59.9527072484,duckFrog,001,2,
frog,quackL.wav,-20,landoltCL.png,V2,frogFront.png,duckFront.png,HinCong,b,20,landoltCBottom.png,,,,,4,37,357,22,,,b,0,0.483661012375,,,2020_Feb_26_0910,59.9527072484,duckFrog,001,2,
frog,wnL.wav,-20,landoltCR.png,V2,frogFront.png,duckFront.png,HinCongWN,h,20,landoltCTop.png,,,,,4,38,358,47,,,h,0,0.650688250622,,,2020_Feb_26_0910,59.9527072484,duckFrog,001,2,
frog,wnL.wav,20,landoltCTop.png,V2,duckFront.png,frogFront.png,HcongWN,h,-20,landoltCL.png,,,,,4,39,359,73,,,h,0,0.483904773908,,,2020_Feb_26_0910,59.9527072484,duckFrog,001,2,
frog,ribbitR.wav,-20,landoltCL.png,V2,frogFront.png,duckFront.png,Hcong,h,20,landoltCTop.png,,,,,4,40,360,76,,,h,0,0.483705732535,,,2020_Feb_26_0910,59.9527072484,duckFrog,001,2,
frog,quackR.wav,20,landoltCBottom.png,V2,duckFront.png,frogFront.png,HinCong,b,-20,landoltCL.png,,,,,4,41,361,34,,,b,0,0.600227046452,,,2020_Feb_26_0910,59.9527072484,duckFrog,001,2,
frog,wnL.wav,-20,landoltCR.png,V2,frogFront.png,duckFront.png,HinCongWN,h,20,landoltCTop.png,,,,,4,42,362,63,,,h,0,0.467070565472,,,2020_Feb_26_0910,59.9527072484,duckFrog,001,2,
frog,wnL.wav,-20,landoltCR.png,V2,frogFront.png,duckFront.png,HinCongWN,h,20,landoltCTop.png,,,,,4,43,363,31,,,h,0,0.617395922993,,,2020_Feb_26_0910,59.9527072484,duckFrog,001,2,
frog,quackL.wav,-20,landoltCL.png,V2,frogFront.png,duckFront.png,HinCong,h,20,landoltCTop.png,,,,,4,44,364,62,,,h,0,0.70072314702,,,2020_Feb_26_0910,59.9527072484,duckFrog,001,2,
frog,quackL.wav,-20,landoltCL.png,V2,frogFront.png,duckFront.png,HinCong,h,20,landoltCTop.png,,,,,4,45,365,30,,,h,0,0.767440863085,,,2020_Feb_26_0910,59.9527072484,duckFrog,001,2,
duck,quackL.wav,20,landoltCBottom.png,V2,frogFront.png,duckFront.png,Lcong,b,-20,landoltCR.png,,,,,4,46,366,8,,,b,0,1.20103802092,,,2020_Feb_26_0910,59.9527072484,duckFrog,001,2,
frog,quackL.wav,-20,landoltCL.png,V2,frogFront.png,duckFront.png,HinCong,b,20,landoltCBottom.png,,,,,4,47,367,54,,,b,0,0.833935344897,,,2020_Feb_26_0910,59.9527072484,duckFrog,001,2,
frog,wnR.wav,-20,landoltCR.png,V2,frogFront.png,duckFront.png,HcongWN,h,20,landoltCTop.png,,,,,4,48,368,61,,,h,0,0.867569671813,,,2020_Feb_26_0910,59.9527072484,duckFrog,001,2,
duck,quackR.wav,-20,landoltCR.png,V2,duckFront.png,frogFront.png,Lcong,h,20,landoltCTop.png,,,,,4,49,369,4,,,h,0,1.21782457674,,,2020_Feb_26_0910,59.9527072484,duckFrog,001,2,
duck,ribbitL.wav,-20,landoltCR.png,V2,duckFront.png,frogFront.png,LinCong,b,20,landoltCBottom.png,,,,,4,50,370,14,,,b,0,1.26810030219,,,2020_Feb_26_0910,59.9527072484,duckFrog,001,2,
frog,quackR.wav,20,landoltCTop.png,V2,duckFront.png,frogFront.png,HinCong,h,-20,landoltCR.png,,,,,4,51,371,26,,,h,0,0.700409006211,,,2020_Feb_26_0910,59.9527072484,duckFrog,001,2,
frog,ribbitR.wav,-20,landoltCL.png,V2,frogFront.png,duckFront.png,Hcong,b,20,landoltCBottom.png,,,,,4,52,372,52,,,b,0,0.600199921129,,,2020_Feb_26_0910,59.9527072484,duckFrog,001,2,
frog,wnR.wav,20,landoltCTop.png,V2,duckFront.png,frogFront.png,HinCongWN,h,-20,landoltCL.png,,,,,4,53,373,27,,,h,0,0.650642797351,,,2020_Feb_26_0910,59.9527072484,duckFrog,001,2,
frog,quackR.wav,20,landoltCTop.png,V2,duckFront.png,frogFront.png,HinCong,h,-20,landoltCR.png,,,,,4,54,374,58,,,h,0,0.43391789672,,,2020_Feb_26_0910,59.9527072484,duckFrog,001,2,
duck,quackR.wav,-20,landoltCR.png,V2,duckFront.png,frogFront.png,Lcong,b,20,landoltCBottom.png,,,,,4,55,375,12,,,b,0,1.0509285665,,,2020_Feb_26_0910,59.9527072484,duckFrog,001,2,
frog,wnR.wav,-20,landoltCR.png,V2,frogFront.png,duckFront.png,HcongWN,h,20,landoltCTop.png,,,,,4,56,376,29,,,h,0,0.584164444095,,,2020_Feb_26_0910,59.9527072484,duckFrog,001,2,
frog,wnR.wav,20,landoltCTop.png,V2,duckFront.png,frogFront.png,HinCongWN,h,-20,landoltCL.png,,,,,4,57,377,59,,,h,0,0.55035270279,,,2020_Feb_26_0910,59.9527072484,duckFrog,001,2,
frog,quackL.wav,-20,landoltCL.png,V2,frogFront.png,duckFront.png,HinCong,h,20,landoltCTop.png,,,,,4,58,378,46,,,b,0,0.466703640224,,,2020_Feb_26_0910,59.9527072484,duckFrog,001,2,
frog,ribbitR.wav,-20,landoltCL.png,V2,frogFront.png,duckFront.png,Hcong,b,20,landoltCBottom.png,,,,,4,59,379,36,,,b,0,0.583985196892,,,2020_Feb_26_0910,59.9527072484,duckFrog,001,2,
frog,wnL.wav,-20,landoltCR.png,V2,frogFront.png,duckFront.png,HinCongWN,b,20,landoltCBottom.png,,,,,4,60,380,39,,,b,0,0.684042526671,,,2020_Feb_26_0910,59.9527072484,duckFrog,001,2,
frog,wnL.wav,20,landoltCBottom.png,V2,duckFront.png,frogFront.png,HcongWN,b,-20,landoltCR.png,,,,,4,61,381,17,,,b,0,0.575109344456,,,2020_Feb_26_0910,59.9527072484,duckFrog,001,2,
frog,quackR.wav,20,landoltCTop.png,V2,duckFront.png,frogFront.png,HinCong,h,-20,landoltCR.png,,,,,4,62,382,42,,,h,0,0.517459924129,,,2020_Feb_26_0910,59.9527072484,duckFrog,001,2,
duck,wnL.wav,-20,landoltCL.png,V2,duckFront.png,frogFront.png,LinCongWN,b,20,landoltCBottom.png,,,,,4,63,383,15,,,b,0,1.11734277198,,,2020_Feb_26_0910,59.9527072484,duckFrog,001,2,
frog,ribbitL.wav,20,landoltCTop.png,V2,duckFront.png,frogFront.png,Hcong,h,-20,landoltCR.png,,,,,4,64,384,56,,,h,0,0.567104435511,,,2020_Feb_26_0910,59.9527072484,duckFrog,001,2,
frog,ribbitR.wav,-20,landoltCL.png,V2,frogFront.png,duckFront.png,Hcong,h,20,landoltCTop.png,,,,,4,65,385,60,,,h,0,0.400123017098,,,2020_Feb_26_0910,59.9527072484,duckFrog,001,2,
duck,quackL.wav,20,landoltCTop.png,V2,frogFront.png,duckFront.png,Lcong,h,-20,landoltCL.png,,,,,4,66,386,0,,,h,0,0.884172215141,,,2020_Feb_26_0910,59.9527072484,duckFrog,001,2,
frog,quackR.wav,20,landoltCBottom.png,V2,duckFront.png,frogFront.png,HinCong,b,-20,landoltCL.png,,,,,4,67,387,66,,,b,0,0.550449474293,,,2020_Feb_26_0910,59.9527072484,duckFrog,001,2,
frog,ribbitL.wav,20,landoltCTop.png,V2,duckFront.png,frogFront.png,Hcong,h,-20,landoltCR.png,,,,,4,68,388,72,,,h,0,0.434027497773,,,2020_Feb_26_0910,59.9527072484,duckFrog,001,2,
duck,wnR.wav,20,landoltCBottom.png,V2,frogFront.png,duckFront.png,LinCongWN,b,-20,landoltCL.png,,,,,4,69,389,11,,,b,0,1.00097138056,,,2020_Feb_26_0910,59.9527072484,duckFrog,001,2,
frog,wnR.wav,-20,landoltCR.png,V2,frogFront.png,duckFront.png,HcongWN,b,20,landoltCBottom.png,,,,,4,70,390,69,,,b,0,0.383586087773,,,2020_Feb_26_0910,59.9527072484,duckFrog,001,2,
duck,wnL.wav,20,landoltCTop.png,V2,frogFront.png,duckFront.png,LcongWN,h,-20,landoltCR.png,,,,,4,71,391,1,,,h,0,0.883991135139,,,2020_Feb_26_0910,59.9527072484,duckFrog,001,2,
frog,wnL.wav,20,landoltCBottom.png,V2,duckFront.png,frogFront.png,HcongWN,b,-20,landoltCR.png,,,,,4,72,392,65,,,b,0,0.500724319994,,,2020_Feb_26_0910,59.9527072484,duckFrog,001,2,
frog,quackL.wav,-20,landoltCL.png,V2,frogFront.png,duckFront.png,HinCong,b,20,landoltCBottom.png,,,,,4,73,393,70,,,b,0,0.400306296462,,,2020_Feb_26_0910,59.9527072484,duckFrog,001,2,
duck,wnL.wav,20,landoltCBottom.png,V2,frogFront.png,duckFront.png,LcongWN,b,-20,landoltCL.png,,,,,4,74,394,9,,,b,0,0.884140691109,,,2020_Feb_26_0910,59.9527072484,duckFrog,001,2,
frog,ribbitR.wav,-20,landoltCL.png,V2,frogFront.png,duckFront.png,Hcong,b,20,landoltCBottom.png,,,,,4,75,395,20,,,b,0,0.500343465508,,,2020_Feb_26_0910,59.9527072484,duckFrog,001,2,
frog,quackR.wav,20,landoltCTop.png,V2,duckFront.png,frogFront.png,HinCong,h,-20,landoltCR.png,,,,,4,76,396,74,,,h,0,0.983747886785,,,2020_Feb_26_0910,59.9527072484,duckFrog,001,2,
frog,wnL.wav,20,landoltCBottom.png,V2,duckFront.png,frogFront.png,HcongWN,b,-20,landoltCR.png,,,,,4,77,397,49,,,b,0,0.533955065766,,,2020_Feb_26_0910,59.9527072484,duckFrog,001,2,
frog,wnL.wav,20,landoltCTop.png,V2,duckFront.png,frogFront.png,HcongWN,h,-20,landoltCL.png,,,,,4,78,398,25,,,h,0,0.417194755573,,,2020_Feb_26_0910,59.9527072484,duckFrog,001,2,
frog,wnL.wav,-20,landoltCR.png,V2,frogFront.png,duckFront.png,HinCongWN,b,20,landoltCBottom.png,,,,,4,79,399,23,,,b,0,0.383525972153,,,2020_Feb_26_0910,59.9527072484,duckFrog,001,2,
frog,ribbitR.wav,-20,landoltCL.png,V2,frogFront.png,duckFront.png,Hcong,b,20,landoltCBottom.png,,,,,5,0,400,68,,,b,0,0.567275618421,,,2020_Feb_26_0910,59.9527072484,duckFrog,001,2,
frog,quackR.wav,20,landoltCTop.png,V2,duckFront.png,frogFront.png,HinCong,h,-20,landoltCR.png,,,,,5,1,401,58,,,h,0,0.466759723698,,,2020_Feb_26_0910,59.9527072484,duckFrog,001,2,
frog,wnL.wav,20,landoltCTop.png,V2,duckFront.png,frogFront.png,HcongWN,h,-20,landoltCL.png,,,,,5,2,402,41,,,h,0,1.11768147221,,,2020_Feb_26_0910,59.9527072484,duckFrog,001,2,
frog,wnR.wav,20,landoltCTop.png,V2,duckFront.png,frogFront.png,HinCongWN,h,-20,landoltCL.png,,,,,5,3,403,59,,,h,0,1.38470592462,,,2020_Feb_26_0910,59.9527072484,duckFrog,001,2,
frog,wnL.wav,-20,landoltCR.png,V2,frogFront.png,duckFront.png,HinCongWN,h,20,landoltCTop.png,,,,,5,4,404,79,,,h,0,0.433638212417,,,2020_Feb_26_0910,59.9527072484,duckFrog,001,2,
duck,wnL.wav,-20,landoltCL.png,V2,duckFront.png,frogFront.png,LinCongWN,h,20,landoltCTop.png,,,,,5,5,405,7,,,h,0,0.9843523421,,,2020_Feb_26_0910,59.9527072484,duckFrog,001,2,
frog,wnR.wav,-20,landoltCR.png,V2,frogFront.png,duckFront.png,HcongWN,h,20,landoltCTop.png,,,,,5,6,406,45,,,h,0,0.600701006857,,,2020_Feb_26_0910,59.9527072484,duckFrog,001,2,
duck,wnL.wav,20,landoltCTop.png,V2,frogFront.png,duckFront.png,LcongWN,h,-20,landoltCR.png,,,,,5,7,407,1,,,h,0,0.950481951382,,,2020_Feb_26_0910,59.9527072484,duckFrog,001,2,
frog,wnR.wav,-20,landoltCR.png,V2,frogFront.png,duckFront.png,HcongWN,h,20,landoltCTop.png,,,,,5,8,408,77,,,h,0,0.683758443687,,,2020_Feb_26_0910,59.9527072484,duckFrog,001,2,
frog,quackR.wav,20,landoltCBottom.png,V2,duckFront.png,frogFront.png,HinCong,b,-20,landoltCL.png,,,,,5,9,409,18,,,b,0,0.566944982464,,,2020_Feb_26_0910,59.9527072484,duckFrog,001,2,
frog,wnR.wav,-20,landoltCR.png,V2,frogFront.png,duckFront.png,HcongWN,h,20,landoltCTop.png,,,,,5,10,410,29,,,h,0,0.383641071574,,,2020_Feb_26_0910,59.9527072484,duckFrog,001,2,
frog,wnL.wav,20,landoltCBottom.png,V2,duckFront.png,frogFront.png,HcongWN,b,-20,landoltCR.png,,,,,5,11,411,17,,,b,0,0.700479018924,,,2020_Feb_26_0910,59.9527072484,duckFrog,001,2,
frog,wnR.wav,20,landoltCBottom.png,V2,duckFront.png,frogFront.png,HinCongWN,b,-20,landoltCR.png,,,,,5,12,412,19,,,b,0,0.567286248624,,,2020_Feb_26_0910,59.9527072484,duckFrog,001,2,
frog,ribbitR.wav,-20,landoltCL.png,V2,frogFront.png,duckFront.png,Hcong,h,20,landoltCTop.png,,,,,5,13,413,60,,,h,0,0.433663138421,,,2020_Feb_26_0910,59.9527072484,duckFrog,001,2,
frog,ribbitR.wav,-20,landoltCL.png,V2,frogFront.png,duckFront.png,Hcong,b,20,landoltCBottom.png,,,,,5,14,414,52,,,b,0,0.600662884768,,,2020_Feb_26_0910,59.9527072484,duckFrog,001,2,
frog,quackR.wav,20,landoltCBottom.png,V2,duckFront.png,frogFront.png,HinCong,b,-20,landoltCL.png,,,,,5,15,415,34,,,b,0,0.600410692379,,,2020_Feb_26_0910,59.9527072484,duckFrog,001,2,
frog,quackR.wav,20,landoltCBottom.png,V2,duckFront.png,frogFront.png,HinCong,b,-20,landoltCL.png,,,,,5,16,416,66,,,b,0,0.550647049429,,,2020_Feb_26_0910,59.9527072484,duckFrog,001,2,
frog,ribbitL.wav,20,landoltCBottom.png,V2,duckFront.png,frogFront.png,Hcong,b,-20,landoltCL.png,,,,,5,17,417,16,,,b,0,0.550701666667,,,2020_Feb_26_0910,59.9527072484,duckFrog,001,2,
frog,wnL.wav,-20,landoltCR.png,V2,frogFront.png,duckFront.png,HinCongWN,h,20,landoltCTop.png,,,,,5,18,418,63,,,h,0,0.63374664048,,,2020_Feb_26_0910,59.9527072484,duckFrog,001,2,
frog,ribbitL.wav,20,landoltCBottom.png,V2,duckFront.png,frogFront.png,Hcong,b,-20,landoltCL.png,,,,,5,19,419,48,,,b,0,0.567079142958,,,2020_Feb_26_0910,59.9527072484,duckFrog,001,2,
duck,ribbitR.wav,20,landoltCBottom.png,V2,frogFront.png,duckFront.png,LinCong,b,-20,landoltCR.png,,,,,5,20,420,10,,,b,0,1.40132056439,,,2020_Feb_26_0910,59.9527072484,duckFrog,001,2,
frog,quackR.wav,20,landoltCBottom.png,V2,duckFront.png,frogFront.png,HinCong,b,-20,landoltCL.png,,,,,5,21,421,50,,,b,0,0.734150368255,,,2020_Feb_26_0910,59.9527072484,duckFrog,001,2,
frog,quackL.wav,-20,landoltCL.png,V2,frogFront.png,duckFront.png,HinCong,h,20,landoltCTop.png,,,,,5,22,422,30,,,h,0,0.516939044217,,,2020_Feb_26_0910,59.9527072484,duckFrog,001,2,
frog,ribbitR.wav,-20,landoltCL.png,V2,frogFront.png,duckFront.png,Hcong,b,20,landoltCBottom.png,,,,,5,23,423,36,,,b,0,0.633999565995,,,2020_Feb_26_0910,59.9527072484,duckFrog,001,2,
frog,wnL.wav,-20,landoltCR.png,V2,frogFront.png,duckFront.png,HinCongWN,b,20,landoltCBottom.png,,,,,5,24,424,71,,,b,0,0.433897002862,,,2020_Feb_26_0910,59.9527072484,duckFrog,001,2,
frog,wnL.wav,-20,landoltCR.png,V2,frogFront.png,duckFront.png,HinCongWN,b,20,landoltCBottom.png,,,,,5,25,425,39,,,b,0,0.433789601157,,,2020_Feb_26_0910,59.9527072484,duckFrog,001,2,
duck,wnL.wav,-20,landoltCL.png,V2,duckFront.png,frogFront.png,LinCongWN,b,20,landoltCBottom.png,,,,,5,26,426,15,,,b,0,1.1336986213,,,2020_Feb_26_0910,59.9527072484,duckFrog,001,2,
frog,ribbitR.wav,-20,landoltCL.png,V2,frogFront.png,duckFront.png,Hcong,b,20,landoltCBottom.png,,,,,5,27,427,20,,,b,0,0.450568092681,,,2020_Feb_26_0910,59.9527072484,duckFrog,001,2,
frog,quackR.wav,20,landoltCTop.png,V2,duckFront.png,frogFront.png,HinCong,h,-20,landoltCR.png,,,,,5,28,428,42,,,h,0,0.400020747213,,,2020_Feb_26_0910,59.9527072484,duckFrog,001,2,
frog,ribbitL.wav,20,landoltCBottom.png,V2,duckFront.png,frogFront.png,Hcong,b,-20,landoltCL.png,,,,,5,29,429,32,,,b,0,0.433867311614,,,2020_Feb_26_0910,59.9527072484,duckFrog,001,2,
frog,wnR.wav,20,landoltCTop.png,V2,duckFront.png,frogFront.png,HinCongWN,h,-20,landoltCL.png,,,,,5,30,430,43,,,h,0,0.3838265503,,,2020_Feb_26_0910,59.9527072484,duckFrog,001,2,
frog,wnR.wav,20,landoltCBottom.png,V2,duckFront.png,frogFront.png,HinCongWN,b,-20,landoltCR.png,,,,,5,31,431,35,,,b,0,0.383861006805,,,2020_Feb_26_0910,59.9527072484,duckFrog,001,2,
frog,ribbitR.wav,-20,landoltCL.png,V2,frogFront.png,duckFront.png,Hcong,h,20,landoltCTop.png,,,,,5,32,432,28,,,h,0,0.433573331538,,,2020_Feb_26_0910,59.9527072484,duckFrog,001,2,
frog,quackL.wav,-20,landoltCL.png,V2,frogFront.png,duckFront.png,HinCong,b,20,landoltCBottom.png,,,,,5,33,433,22,,,b,0,0.567267554128,,,2020_Feb_26_0910,59.9527072484,duckFrog,001,2,
frog,quackL.wav,-20,landoltCL.png,V2,frogFront.png,duckFront.png,HinCong,b,20,landoltCBottom.png,,,,,5,34,434,70,,,b,0,0.467412564758,,,2020_Feb_26_0910,59.9527072484,duckFrog,001,2,
frog,wnL.wav,20,landoltCBottom.png,V2,duckFront.png,frogFront.png,HcongWN,b,-20,landoltCR.png,,,,,5,35,435,65,,,b,0,0.633869437646,,,2020_Feb_26_0910,59.9527072484,duckFrog,001,2,
frog,quackL.wav,-20,landoltCL.png,V2,frogFront.png,duckFront.png,HinCong,b,20,landoltCBottom.png,,,,,5,36,436,54,,,b,0,0.483577070438,,,2020_Feb_26_0910,59.9527072484,duckFrog,001,2,
frog,wnL.wav,-20,landoltCR.png,V2,frogFront.png,duckFront.png,HinCongWN,b,20,landoltCBottom.png,,,,,5,37,437,23,,,b,0,0.400677253871,,,2020_Feb_26_0910,59.9527072484,duckFrog,001,2,
frog,wnL.wav,20,landoltCTop.png,V2,duckFront.png,frogFront.png,HcongWN,h,-20,landoltCL.png,,,,,5,38,438,73,,,h,0,0.567275251873,,,2020_Feb_26_0910,59.9527072484,duckFrog,001,2,
frog,ribbitL.wav,20,landoltCTop.png,V2,duckFront.png,frogFront.png,Hcong,h,-20,landoltCR.png,,,,,5,39,439,24,,,h,0,0.583984097218,,,2020_Feb_26_0910,59.9527072484,duckFrog,001,2,
duck,wnR.wav,20,landoltCBottom.png,V2,frogFront.png,duckFront.png,LinCongWN,b,-20,landoltCL.png,,,,,5,40,440,11,,,b,0,1.15594543553,,,2020_Feb_26_0910,59.9527072484,duckFrog,001,2,
frog,ribbitL.wav,20,landoltCTop.png,V2,duckFront.png,frogFront.png,Hcong,h,-20,landoltCR.png,,,,,5,41,441,72,,,h,0,0.333954405956,,,2020_Feb_26_0910,59.9527072484,duckFrog,001,2,
frog,wnL.wav,-20,landoltCR.png,V2,frogFront.png,duckFront.png,HinCongWN,h,20,landoltCTop.png,,,,,5,42,442,47,,,h,0,0.433359994364,,,2020_Feb_26_0910,59.9527072484,duckFrog,001,2,
duck,wnL.wav,20,landoltCBottom.png,V2,frogFront.png,duckFront.png,LcongWN,b,-20,landoltCL.png,,,,,5,43,443,9,,,b,0,0.950905326681,,,2020_Feb_26_0910,59.9527072484,duckFrog,001,2,
duck,ribbitR.wav,20,landoltCTop.png,V2,frogFront.png,duckFront.png,LinCong,h,-20,landoltCL.png,,,,,5,44,444,2,,,h,0,0.917562780509,,,2020_Feb_26_0910,59.9527072484,duckFrog,001,2,
frog,wnL.wav,-20,landoltCR.png,V2,frogFront.png,duckFront.png,HinCongWN,h,20,landoltCTop.png,,,,,5,45,445,31,,,h,0,0.483567539908,,,2020_Feb_26_0910,59.9527072484,duckFrog,001,2,
frog,wnL.wav,20,landoltCTop.png,V2,duckFront.png,frogFront.png,HcongWN,h,-20,landoltCL.png,,,,,5,46,446,25,,,h,0,0.433712990402,,,2020_Feb_26_0910,59.9527072484,duckFrog,001,2,
frog,wnR.wav,20,landoltCBottom.png,V2,duckFront.png,frogFront.png,HinCongWN,b,-20,landoltCR.png,,,,,5,47,447,51,,,b,0,0.517239988912,,,2020_Feb_26_0910,59.9527072484,duckFrog,001,2,
frog,quackL.wav,-20,landoltCL.png,V2,frogFront.png,duckFront.png,HinCong,h,20,landoltCTop.png,,,,,5,48,448,46,,,h,0,0.316839780135,,,2020_Feb_26_0910,59.9527072484,duckFrog,001,2,
duck,ribbitL.wav,-20,landoltCR.png,V2,duckFront.png,frogFront.png,LinCong,b,20,landoltCBottom.png,,,,,5,49,449,14,,,h,0,0.567333168132,,,2020_Feb_26_0910,59.9527072484,duckFrog,001,2,
frog,wnR.wav,-20,landoltCR.png,V2,frogFront.png,duckFront.png,HcongWN,h,20,landoltCTop.png,,,,,5,50,450,61,,,h,0,0.617336907046,,,2020_Feb_26_0910,59.9527072484,duckFrog,001,2,
frog,wnL.wav,20,landoltCTop.png,V2,duckFront.png,frogFront.png,HcongWN,h,-20,landoltCL.png,,,,,5,51,451,57,,,h,0,0.617095711408,,,2020_Feb_26_0910,59.9527072484,duckFrog,001,2,
frog,quackL.wav,-20,landoltCL.png,V2,frogFront.png,duckFront.png,HinCong,b,20,landoltCBottom.png,,,,,5,52,452,38,,,b,0,0.767229725272,,,2020_Feb_26_0910,59.9527072484,duckFrog,001,2,
duck,quackL.wav,20,landoltCBottom.png,V2,frogFront.png,duckFront.png,Lcong,b,-20,landoltCR.png,,,,,5,53,453,8,,,b,0,1.01729827175,,,2020_Feb_26_0910,59.9527072484,duckFrog,001,2,
frog,wnR.wav,-20,landoltCR.png,V2,frogFront.png,duckFront.png,HcongWN,b,20,landoltCBottom.png,,,,,5,54,454,21,,,b,0,0.633755071336,,,2020_Feb_26_0910,59.9527072484,duckFrog,001,2,
frog,ribbitL.wav,20,landoltCBottom.png,V2,duckFront.png,frogFront.png,Hcong,b,-20,landoltCL.png,,,,,5,55,455,64,,,b,0,0.516843738951,,,2020_Feb_26_0910,59.9527072484,duckFrog,001,2,
frog,ribbitL.wav,20,landoltCTop.png,V2,duckFront.png,frogFront.png,Hcong,h,-20,landoltCR.png,,,,,5,56,456,56,,,h,0,0.517264914903,,,2020_Feb_26_0910,59.9527072484,duckFrog,001,2,
frog,quackL.wav,-20,landoltCL.png,V2,frogFront.png,duckFront.png,HinCong,h,20,landoltCTop.png,,,,,5,57,457,78,,,h,0,0.400176901239,,,2020_Feb_26_0910,59.9527072484,duckFrog,001,2,
frog,wnR.wav,-20,landoltCR.png,V2,frogFront.png,duckFront.png,HcongWN,b,20,landoltCBottom.png,,,,,5,58,458,37,,,b,0,0.450739275591,,,2020_Feb_26_0910,59.9527072484,duckFrog,001,2,
duck,quackR.wav,-20,landoltCR.png,V2,duckFront.png,frogFront.png,Lcong,h,20,landoltCTop.png,,,,,5,59,459,4,,,h,0,1.05102607112,,,2020_Feb_26_0910,59.9527072484,duckFrog,001,2,
frog,wnL.wav,-20,landoltCR.png,V2,frogFront.png,duckFront.png,HinCongWN,b,20,landoltCBottom.png,,,,,5,60,460,55,,,b,0,0.417200253956,,,2020_Feb_26_0910,59.9527072484,duckFrog,001,2,
frog,wnR.wav,-20,landoltCR.png,V2,frogFront.png,duckFront.png,HcongWN,b,20,landoltCBottom.png,,,,,5,61,461,69,,,b,0,0.584099929765,,,2020_Feb_26_0910,59.9527072484,duckFrog,001,2,
frog,wnL.wav,20,landoltCBottom.png,V2,duckFront.png,frogFront.png,HcongWN,b,-20,landoltCR.png,,,,,5,62,462,33,,,h,0,0.349990616101,,,2020_Feb_26_0910,59.9527072484,duckFrog,001,2,
frog,ribbitL.wav,20,landoltCTop.png,V2,duckFront.png,frogFront.png,Hcong,h,-20,landoltCR.png,,,,,5,63,463,40,,,h,0,0.634048318301,,,2020_Feb_26_0910,59.9527072484,duckFrog,001,2,
frog,ribbitR.wav,-20,landoltCL.png,V2,frogFront.png,duckFront.png,Hcong,h,20,landoltCTop.png,,,,,5,64,464,44,,,h,0,0.867293286545,,,2020_Feb_26_0910,59.9527072484,duckFrog,001,2,
duck,quackR.wav,-20,landoltCR.png,V2,duckFront.png,frogFront.png,Lcong,b,20,landoltCBottom.png,,,,,5,65,465,12,,,b,0,0.967833374132,,,2020_Feb_26_0910,59.9527072484,duckFrog,001,2,
duck,wnR.wav,-20,landoltCL.png,V2,duckFront.png,frogFront.png,LcongWN,h,20,landoltCTop.png,,,,,5,66,466,5,,,h,0,1.28479301896,,,2020_Feb_26_0910,59.9527072484,duckFrog,001,2,
frog,quackR.wav,20,landoltCTop.png,V2,duckFront.png,frogFront.png,HinCong,h,-20,landoltCR.png,,,,,5,67,467,26,,,h,0,0.466973060873,,,2020_Feb_26_0910,59.9527072484,duckFrog,001,2,
frog,quackL.wav,-20,landoltCL.png,V2,frogFront.png,duckFront.png,HinCong,h,20,landoltCTop.png,,,,,5,68,468,62,,,h,0,0.533731831529,,,2020_Feb_26_0910,59.9527072484,duckFrog,001,2,
frog,quackR.wav,20,landoltCTop.png,V2,duckFront.png,frogFront.png,HinCong,h,-20,landoltCR.png,,,,,5,69,469,74,,,h,0,0.617056489617,,,2020_Feb_26_0910,59.9527072484,duckFrog,001,2,
duck,quackL.wav,20,landoltCTop.png,V2,frogFront.png,duckFront.png,Lcong,h,-20,landoltCL.png,,,,,5,70,470,0,,,h,0,1.03439273687,,,2020_Feb_26_0910,59.9527072484,duckFrog,001,2,
frog,ribbitR.wav,-20,landoltCL.png,V2,frogFront.png,duckFront.png,Hcong,h,20,landoltCTop.png,,,,,5,71,471,76,,,h,0,0.507554408308,,,2020_Feb_26_0910,59.9527072484,duckFrog,001,2,
duck,wnR.wav,20,landoltCTop.png,V2,frogFront.png,duckFront.png,LinCongWN,h,-20,landoltCR.png,,,,,5,72,472,3,,,h,0,0.500291047603,,,2020_Feb_26_0910,59.9527072484,duckFrog,001,2,
frog,wnR.wav,20,landoltCBottom.png,V2,duckFront.png,frogFront.png,HinCongWN,b,-20,landoltCR.png,,,,,5,73,473,67,,,b,0,1.43471186286,,,2020_Feb_26_0910,59.9527072484,duckFrog,001,2,
frog,wnR.wav,20,landoltCTop.png,V2,duckFront.png,frogFront.png,HinCongWN,h,-20,landoltCL.png,,,,,5,74,474,27,,,h,0,0.400753864626,,,2020_Feb_26_0910,59.9527072484,duckFrog,001,2,
frog,wnR.wav,20,landoltCTop.png,V2,duckFront.png,frogFront.png,HinCongWN,h,-20,landoltCL.png,,,,,5,75,475,75,,,h,0,0.400658192812,,,2020_Feb_26_0910,59.9527072484,duckFrog,001,2,
duck,wnR.wav,-20,landoltCL.png,V2,duckFront.png,frogFront.png,LcongWN,b,20,landoltCBottom.png,,,,,5,76,476,13,,,b,0,1.03425711014,,,2020_Feb_26_0910,59.9527072484,duckFrog,001,2,
frog,wnR.wav,-20,landoltCR.png,V2,frogFront.png,duckFront.png,HcongWN,b,20,landoltCBottom.png,,,,,5,77,477,53,,,b,0,0.600663251316,,,2020_Feb_26_0910,59.9527072484,duckFrog,001,2,
duck,ribbitL.wav,-20,landoltCR.png,V2,duckFront.png,frogFront.png,LinCong,h,20,landoltCTop.png,,,,,5,78,478,6,,,h,0,0.950877468218,,,2020_Feb_26_0910,59.9527072484,duckFrog,001,2,
frog,wnL.wav,20,landoltCBottom.png,V2,duckFront.png,frogFront.png,HcongWN,b,-20,landoltCR.png,,,,,5,79,479,49,,,b,0,0.567108467643,,,2020_Feb_26_0910,59.9527072484,duckFrog,001,2,
frog,ribbitL.wav,20,landoltCBottom.png,V2,duckFront.png,frogFront.png,Hcong,b,-20,landoltCL.png,,,,,6,0,480,64,,,b,0,0.3839658426,,,2020_Feb_26_0910,59.9527072484,duckFrog,001,2,
frog,ribbitR.wav,-20,landoltCL.png,V2,frogFront.png,duckFront.png,Hcong,b,20,landoltCBottom.png,,,,,6,1,481,20,,,b,0,0.984259969307,,,2020_Feb_26_0910,59.9527072484,duckFrog,001,2,
frog,ribbitL.wav,20,landoltCTop.png,V2,duckFront.png,frogFront.png,Hcong,h,-20,landoltCR.png,,,,,6,2,482,24,,,h,0,0.383551631254,,,2020_Feb_26_0910,59.9527072484,duckFrog,001,2,
frog,quackL.wav,-20,landoltCL.png,V2,frogFront.png,duckFront.png,HinCong,h,20,landoltCTop.png,,,,,6,3,483,46,,,h,0,0.467212423697,,,2020_Feb_26_0910,59.9527072484,duckFrog,001,2,
frog,wnR.wav,-20,landoltCR.png,V2,frogFront.png,duckFront.png,HcongWN,b,20,landoltCBottom.png,,,,,6,4,484,37,,,b,0,0.433915697373,,,2020_Feb_26_0910,59.9527072484,duckFrog,001,2,
frog,quackL.wav,-20,landoltCL.png,V2,frogFront.png,duckFront.png,HinCong,h,20,landoltCTop.png,,,,,6,5,485,78,,,h,0,0.283620764225,,,2020_Feb_26_0910,59.9527072484,duckFrog,001,2,
frog,wnL.wav,-20,landoltCR.png,V2,frogFront.png,duckFront.png,HinCongWN,b,20,landoltCBottom.png,,,,,6,6,486,71,,,b,0,0.467243214633,,,2020_Feb_26_0910,59.9527072484,duckFrog,001,2,
frog,ribbitR.wav,-20,landoltCL.png,V2,frogFront.png,duckFront.png,Hcong,h,20,landoltCTop.png,,,,,6,7,487,28,,,h,0,0.333799351618,,,2020_Feb_26_0910,59.9527072484,duckFrog,001,2,
frog,wnL.wav,-20,landoltCR.png,V2,frogFront.png,duckFront.png,HinCongWN,b,20,landoltCBottom.png,,,,,6,8,488,23,,,b,0,0.300559075331,,,2020_Feb_26_0910,59.9527072484,duckFrog,001,2,
frog,wnR.wav,-20,landoltCR.png,V2,frogFront.png,duckFront.png,HcongWN,b,20,landoltCBottom.png,,,,,6,9,489,21,,,b,0,0.484162098131,,,2020_Feb_26_0910,59.9527072484,duckFrog,001,2,
frog,wnR.wav,-20,landoltCR.png,V2,frogFront.png,duckFront.png,HcongWN,b,20,landoltCBottom.png,,,,,6,10,490,53,,,b,0,0.750821824622,,,2020_Feb_26_0910,59.9527072484,duckFrog,001,2,
frog,wnR.wav,20,landoltCBottom.png,V2,duckFront.png,frogFront.png,HinCongWN,b,-20,landoltCR.png,,,,,6,11,491,19,,,b,0,0.367068586071,,,2020_Feb_26_0910,59.9527072484,duckFrog,001,2,
frog,ribbitL.wav,20,landoltCTop.png,V2,duckFront.png,frogFront.png,Hcong,h,-20,landoltCR.png,,,,,6,12,492,40,,,h,0,0.767628541143,,,2020_Feb_26_0910,59.9527072484,duckFrog,001,2,
frog,ribbitR.wav,-20,landoltCL.png,V2,frogFront.png,duckFront.png,Hcong,h,20,landoltCTop.png,,,,,6,13,493,76,,,h,0,0.450477186125,,,2020_Feb_26_0910,59.9527072484,duckFrog,001,2,
frog,ribbitL.wav,20,landoltCTop.png,V2,duckFront.png,frogFront.png,Hcong,h,-20,landoltCR.png,,,,,6,14,494,56,,,h,0,0.350246840637,,,2020_Feb_26_0910,59.9527072484,duckFrog,001,2,
frog,wnR.wav,20,landoltCTop.png,V2,duckFront.png,frogFront.png,HinCongWN,h,-20,landoltCL.png,,,,,6,15,495,59,,,h,0,0.500564866961,,,2020_Feb_26_0910,59.9527072484,duckFrog,001,2,
duck,quackL.wav,20,landoltCBottom.png,V2,frogFront.png,duckFront.png,Lcong,b,-20,landoltCR.png,,,,,6,16,496,8,,,b,0,0.967675020773,,,2020_Feb_26_0910,59.9527072484,duckFrog,001,2,
frog,wnL.wav,20,landoltCBottom.png,V2,duckFront.png,frogFront.png,HcongWN,b,-20,landoltCR.png,,,,,6,17,497,17,,,b,0,0.417202453304,,,2020_Feb_26_0910,59.9527072484,duckFrog,001,2,
duck,ribbitL.wav,-20,landoltCR.png,V2,duckFront.png,frogFront.png,LinCong,h,20,landoltCTop.png,,,,,6,18,498,6,,,h,0,1.0174229017,,,2020_Feb_26_0910,59.9527072484,duckFrog,001,2,
frog,quackL.wav,-20,landoltCL.png,V2,frogFront.png,duckFront.png,HinCong,h,20,landoltCTop.png,,,,,6,19,499,30,,,h,0,0.567356627886,,,2020_Feb_26_0910,59.9527072484,duckFrog,001,2,
duck,quackR.wav,-20,landoltCR.png,V2,duckFront.png,frogFront.png,Lcong,h,20,landoltCTop.png,,,,,6,20,500,4,,,h,0,0.86748243084,,,2020_Feb_26_0910,59.9527072484,duckFrog,001,2,
frog,wnR.wav,20,landoltCTop.png,V2,duckFront.png,frogFront.png,HinCongWN,h,-20,landoltCL.png,,,,,6,21,501,43,,,h,0,0.350251972442,,,2020_Feb_26_0910,59.9527072484,duckFrog,001,2,
frog,wnR.wav,-20,landoltCR.png,V2,frogFront.png,duckFront.png,HcongWN,h,20,landoltCTop.png,,,,,6,22,502,77,,,h,0,0.350249039984,,,2020_Feb_26_0910,59.9527072484,duckFrog,001,2,
frog,wnR.wav,-20,landoltCR.png,V2,frogFront.png,duckFront.png,HcongWN,b,20,landoltCBottom.png,,,,,6,23,503,69,,,b,0,0.567331335347,,,2020_Feb_26_0910,59.9527072484,duckFrog,001,2,
frog,wnL.wav,20,landoltCBottom.png,V2,duckFront.png,frogFront.png,HcongWN,b,-20,landoltCR.png,,,,,6,24,504,33,,,b,0,0.500282983325,,,2020_Feb_26_0910,59.9527072484,duckFrog,001,2,
frog,ribbitR.wav,-20,landoltCL.png,V2,frogFront.png,duckFront.png,Hcong,h,20,landoltCTop.png,,,,,6,25,505,60,,,h,0,0.500050218543,,,2020_Feb_26_0910,59.9527072484,duckFrog,001,2,
frog,wnL.wav,-20,landoltCR.png,V2,frogFront.png,duckFront.png,HinCongWN,b,20,landoltCBottom.png,,,,,6,26,506,39,,,b,0,0.417189990301,,,2020_Feb_26_0910,59.9527072484,duckFrog,001,2,
frog,wnR.wav,-20,landoltCR.png,V2,frogFront.png,duckFront.png,HcongWN,h,20,landoltCTop.png,,,,,6,27,507,45,,,h,0,0.350530923635,,,2020_Feb_26_0910,59.9527072484,duckFrog,001,2,
frog,wnL.wav,20,landoltCTop.png,V2,duckFront.png,frogFront.png,HcongWN,h,-20,landoltCL.png,,,,,6,28,508,57,,,h,0,0.416859354358,,,2020_Feb_26_0910,59.9527072484,duckFrog,001,2,
frog,quackL.wav,-20,landoltCL.png,V2,frogFront.png,duckFront.png,HinCong,h,20,landoltCTop.png,,,,,6,29,509,62,,,h,0,0.383588653684,,,2020_Feb_26_0910,59.9527072484,duckFrog,001,2,
frog,quackL.wav,-20,landoltCL.png,V2,frogFront.png,duckFront.png,HinCong,b,20,landoltCBottom.png,,,,,6,30,510,70,,,b,0,0.400569852165,,,2020_Feb_26_0910,59.9527072484,duckFrog,001,2,
frog,ribbitR.wav,-20,landoltCL.png,V2,frogFront.png,duckFront.png,Hcong,b,20,landoltCBottom.png,,,,,6,31,511,68,,,b,0,0.567478691941,,,2020_Feb_26_0910,59.9527072484,duckFrog,001,2,
frog,ribbitR.wav,-20,landoltCL.png,V2,frogFront.png,duckFront.png,Hcong,h,20,landoltCTop.png,,,,,6,32,512,44,,,h,0,0.333845171466,,,2020_Feb_26_0910,59.9527072484,duckFrog,001,2,
frog,quackR.wav,20,landoltCTop.png,V2,duckFront.png,frogFront.png,HinCong,h,-20,landoltCR.png,,,,,6,33,513,42,,,h,0,0.383599650449,,,2020_Feb_26_0910,59.9527072484,duckFrog,001,2,
frog,wnL.wav,20,landoltCBottom.png,V2,duckFront.png,frogFront.png,HcongWN,b,-20,landoltCR.png,,,,,6,34,514,49,,,b,0,0.367143364041,,,2020_Feb_26_0910,59.9527072484,duckFrog,001,2,
frog,quackR.wav,20,landoltCTop.png,V2,duckFront.png,frogFront.png,HinCong,h,-20,landoltCR.png,,,,,6,35,515,58,,,h,0,0.600804376416,,,2020_Feb_26_0910,59.9527072484,duckFrog,001,2,
frog,wnL.wav,20,landoltCTop.png,V2,duckFront.png,frogFront.png,HcongWN,h,-20,landoltCL.png,,,,,6,36,516,25,,,h,0,0.450518973812,,,2020_Feb_26_0910,59.9527072484,duckFrog,001,2,
frog,wnR.wav,20,landoltCTop.png,V2,duckFront.png,frogFront.png,HinCongWN,h,-20,landoltCL.png,,,,,6,37,517,75,,,h,0,0.36712796858,,,2020_Feb_26_0910,59.9527072484,duckFrog,001,2,
duck,wnL.wav,20,landoltCTop.png,V2,frogFront.png,duckFront.png,LcongWN,h,-20,landoltCR.png,,,,,6,38,518,1,,,h,0,0.46728243641,,,2020_Feb_26_0910,59.9527072484,duckFrog,001,2,
frog,ribbitL.wav,20,landoltCBottom.png,V2,duckFront.png,frogFront.png,Hcong,b,-20,landoltCL.png,,,,,6,39,519,48,,,b,0,0.600662151643,,,2020_Feb_26_0910,59.9527072484,duckFrog,001,2,
duck,wnL.wav,-20,landoltCL.png,V2,duckFront.png,frogFront.png,LinCongWN,h,20,landoltCTop.png,,,,,6,40,520,7,,,h,0,1.06746732863,,,2020_Feb_26_0910,59.9527072484,duckFrog,001,2,
frog,quackR.wav,20,landoltCBottom.png,V2,duckFront.png,frogFront.png,HinCong,b,-20,landoltCL.png,,,,,6,41,521,66,,,b,0,0.500396249961,,,2020_Feb_26_0910,59.9527072484,duckFrog,001,2,
frog,quackR.wav,20,landoltCBottom.png,V2,duckFront.png,frogFront.png,HinCong,b,-20,landoltCL.png,,,,,6,42,522,18,,,b,0,0.333865698747,,,2020_Feb_26_0910,59.9527072484,duckFrog,001,2,
frog,wnR.wav,20,landoltCBottom.png,V2,duckFront.png,frogFront.png,HinCongWN,b,-20,landoltCR.png,,,,,6,43,523,67,,,b,0,0.400638398627,,,2020_Feb_26_0910,59.9527072484,duckFrog,001,2,
frog,wnL.wav,-20,landoltCR.png,V2,frogFront.png,duckFront.png,HinCongWN,h,20,landoltCTop.png,,,,,6,44,524,47,,,h,0,0.533708005198,,,2020_Feb_26_0910,59.9527072484,duckFrog,001,2,
duck,wnR.wav,-20,landoltCL.png,V2,duckFront.png,frogFront.png,LcongWN,h,20,landoltCTop.png,,,,,6,45,525,5,,,h,0,0.834401241023,,,2020_Feb_26_0910,59.9527072484,duckFrog,001,2,
duck,ribbitR.wav,20,landoltCBottom.png,V2,frogFront.png,duckFront.png,LinCong,b,-20,landoltCR.png,,,,,6,46,526,10,,,b,0,1.0509384636,,,2020_Feb_26_0910,59.9527072484,duckFrog,001,2,
frog,wnL.wav,-20,landoltCR.png,V2,frogFront.png,duckFront.png,HinCongWN,b,20,landoltCBottom.png,,,,,6,47,527,55,,,b,0,1.08414538305,,,2020_Feb_26_0910,59.9527072484,duckFrog,001,2,
duck,quackL.wav,20,landoltCTop.png,V2,frogFront.png,duckFront.png,Lcong,h,-20,landoltCL.png,,,,,6,48,528,0,,,h,0,1.08424032174,,,2020_Feb_26_0910,59.9527072484,duckFrog,001,2,
frog,wnL.wav,-20,landoltCR.png,V2,frogFront.png,duckFront.png,HinCongWN,h,20,landoltCTop.png,,,,,6,49,529,79,,,h,0,0.399985557597,,,2020_Feb_26_0910,59.9527072484,duckFrog,001,2,
frog,quackR.wav,20,landoltCTop.png,V2,duckFront.png,frogFront.png,HinCong,h,-20,landoltCR.png,,,,,6,50,530,26,,,h,0,0.366639345826,,,2020_Feb_26_0910,59.9527072484,duckFrog,001,2,
duck,wnL.wav,-20,landoltCL.png,V2,duckFront.png,frogFront.png,LinCongWN,b,20,landoltCBottom.png,,,,,6,51,531,15,,,b,0,0.917358607316,,,2020_Feb_26_0910,59.9527072484,duckFrog,001,2,
duck,ribbitL.wav,-20,landoltCR.png,V2,duckFront.png,frogFront.png,LinCong,b,20,landoltCBottom.png,,,,,6,52,532,14,,,b,0,1.03430842837,,,2020_Feb_26_0910,59.9527072484,duckFrog,001,2,
duck,wnR.wav,20,landoltCBottom.png,V2,frogFront.png,duckFront.png,LinCongWN,b,-20,landoltCL.png,,,,,6,53,533,11,,,b,0,1.15082277766,,,2020_Feb_26_0910,59.9527072484,duckFrog,001,2,
frog,wnL.wav,-20,landoltCR.png,V2,frogFront.png,duckFront.png,HinCongWN,h,20,landoltCTop.png,,,,,6,54,534,31,,,h,0,0.683611087079,,,2020_Feb_26_0910,59.9527072484,duckFrog,001,2,
duck,wnR.wav,20,landoltCTop.png,V2,frogFront.png,duckFront.png,LinCongWN,h,-20,landoltCR.png,,,,,6,55,535,3,,,h,0,1.11756857214,,,2020_Feb_26_0910,59.9527072484,duckFrog,001,2,
frog,quackR.wav,20,landoltCTop.png,V2,duckFront.png,frogFront.png,HinCong,h,-20,landoltCR.png,,,,,6,56,536,74,,,h,0,0.617346804123,,,2020_Feb_26_0910,59.9527072484,duckFrog,001,2,
frog,wnL.wav,20,landoltCTop.png,V2,duckFront.png,frogFront.png,HcongWN,h,-20,landoltCL.png,,,,,6,57,537,41,,,h,0,0.500561201377,,,2020_Feb_26_0910,59.9527072484,duckFrog,001,2,
frog,wnR.wav,-20,landoltCR.png,V2,frogFront.png,duckFront.png,HcongWN,h,20,landoltCTop.png,,,,,6,58,538,29,,,h,0,0.333667023937,,,2020_Feb_26_0910,59.9527072484,duckFrog,001,2,
frog,quackL.wav,-20,landoltCL.png,V2,frogFront.png,duckFront.png,HinCong,b,20,landoltCBottom.png,,,,,6,59,539,54,,,b,0,0.50062351636,,,2020_Feb_26_0910,59.9527072484,duckFrog,001,2,
frog,quackL.wav,-20,landoltCL.png,V2,frogFront.png,duckFront.png,HinCong,b,20,landoltCBottom.png,,,,,6,60,540,38,,,b,0,0.400584147952,,,2020_Feb_26_0910,59.9527072484,duckFrog,001,2,
frog,quackR.wav,20,landoltCBottom.png,V2,duckFront.png,frogFront.png,HinCong,b,-20,landoltCL.png,,,,,6,61,541,34,,,b,0,0.517069172565,,,2020_Feb_26_0910,59.9527072484,duckFrog,001,2,
frog,quackL.wav,-20,landoltCL.png,V2,frogFront.png,duckFront.png,HinCong,b,20,landoltCBottom.png,,,,,6,62,542,22,,,b,0,0.500111433837,,,2020_Feb_26_0910,59.9527072484,duckFrog,001,2,
frog,wnR.wav,20,landoltCTop.png,V2,duckFront.png,frogFront.png,HinCongWN,h,-20,landoltCL.png,,,,,6,63,543,27,,,h,0,0.366714490359,,,2020_Feb_26_0910,59.9527072484,duckFrog,001,2,
frog,ribbitR.wav,-20,landoltCL.png,V2,frogFront.png,duckFront.png,Hcong,b,20,landoltCBottom.png,,,,,6,64,544,36,,,h,0,0.416861553706,,,2020_Feb_26_0910,59.9527072484,duckFrog,001,2,
frog,ribbitL.wav,20,landoltCBottom.png,V2,duckFront.png,frogFront.png,Hcong,b,-20,landoltCL.png,,,,,6,65,545,16,,,b,0,0.366692130279,,,2020_Feb_26_0910,59.9527072484,duckFrog,001,2,
frog,ribbitR.wav,-20,landoltCL.png,V2,frogFront.png,duckFront.png,Hcong,b,20,landoltCBottom.png,,,,,6,66,546,52,,,b,0,0.350220081848,,,2020_Feb_26_0910,59.9527072484,duckFrog,001,2,
frog,ribbitL.wav,20,landoltCBottom.png,V2,duckFront.png,frogFront.png,Hcong,b,-20,landoltCL.png,,,,,6,67,547,32,,,b,0,0.40025937694,,,2020_Feb_26_0910,59.9527072484,duckFrog,001,2,
frog,wnL.wav,-20,landoltCR.png,V2,frogFront.png,duckFront.png,HinCongWN,h,20,landoltCTop.png,,,,,6,68,548,63,,,h,0,0.600516627834,,,2020_Feb_26_0910,59.9527072484,duckFrog,001,2,
