targetAnim,audioPos,distPos,visualL,expLab,picR,picL,condLabel,corrAns,targetPos,visualR,pracTrials1a.thisRepN,pracTrials1a.thisTrialN,pracTrials1a.thisN,pracTrials1a.thisIndex,exp1a.thisRepN,exp1a.thisTrialN,exp1a.thisN,exp1a.thisIndex,pressToCont.keys,pressToCont.rt,key_resp_2.keys,key_resp_2.corr,key_resp_2.rt,spaceToBegin.keys,spaceToBegin.rt,date,frameRate,expName,session,participant,
,,,,,,,,,,,,,,,,,,,space,9.02413239221,,,,,,2020_Feb_26_1011,59.9586367257,duckFrog,001,3,
frog,ribbitR.wav,-20,landoltCL.png,prac,frogFront.png,duckFront.png,Lcong,b,20,landoltCBottom.png,0,0,0,3,,,,,,,b,0,3.45296062133,,,2020_Feb_26_1011,59.9586367257,duckFrog,001,3,
duck,quackL.wav,20,landoltCTop.png,prac,frogFront.png,duckFront.png,Hcong,h,-20,landoltCL.png,0,1,1,0,,,,,,,h,0,0.584117158025,,,2020_Feb_26_1011,59.9586367257,duckFrog,001,3,
duck,ribbitL.wav,-20,landoltCR.png,prac,duckFront.png,frogFront.png,HinCong,h,20,landoltCTop.png,0,2,2,1,,,,,,,h,0,0.533525092411,,,2020_Feb_26_1011,59.9586367257,duckFrog,001,3,
frog,wnR.wav,20,landoltCBottom.png,prac,duckFront.png,frogFront.png,LinCongWN,b,-20,landoltCR.png,0,3,3,2,,,,,,,b,0,1.0007661077,,,2020_Feb_26_1011,59.9586367257,duckFrog,001,3,
duck,wnL.wav,20,landoltCBottom.png,prac,frogFront.png,duckFront.png,HcongWN,b,-20,landoltCL.png,0,4,4,4,,,,,,,b,0,0.533977792409,,,2020_Feb_26_1011,59.9586367257,duckFrog,001,3,
,,,,,,,,,,,,,,,,,,,,,,,,space,13.4108910456,2020_Feb_26_1011,59.9586367257,duckFrog,001,3,
duck,wnL.wav,20,landoltCTop.png,V1,frogFront.png,duckFront.png,HcongWN,h,-20,landoltCR.png,,,,,0,0,0,1,,,h,0,0.767520039764,,,2020_Feb_26_1011,59.9586367257,duckFrog,001,3,
duck,quackR.wav,-20,landoltCR.png,V1,duckFront.png,frogFront.png,Hcong,b,20,landoltCBottom.png,,,,,0,1,1,12,,,b,0,0.750280783977,,,2020_Feb_26_1011,59.9586367257,duckFrog,001,3,
duck,ribbitL.wav,-20,landoltCR.png,V1,duckFront.png,frogFront.png,HinCong,h,20,landoltCTop.png,,,,,0,2,2,70,,,h,0,1.28457161751,,,2020_Feb_26_1011,59.9586367257,duckFrog,001,3,
frog,wnL.wav,20,landoltCTop.png,V1,duckFront.png,frogFront.png,LcongWN,h,-20,landoltCL.png,,,,,0,3,3,25,,,h,0,1.41778198261,,,2020_Feb_26_1011,59.9586367257,duckFrog,001,3,
frog,quackR.wav,20,landoltCTop.png,V1,duckFront.png,frogFront.png,LinCong,h,-20,landoltCR.png,,,,,0,4,4,26,,,h,0,0.734119577319,,,2020_Feb_26_1011,59.9586367257,duckFrog,001,3,
duck,ribbitR.wav,20,landoltCTop.png,V1,frogFront.png,duckFront.png,HinCong,h,-20,landoltCL.png,,,,,0,5,5,50,,,h,0,0.784154473702,,,2020_Feb_26_1011,59.9586367257,duckFrog,001,3,
duck,wnL.wav,-20,landoltCL.png,V1,duckFront.png,frogFront.png,HinCongWN,b,20,landoltCBottom.png,,,,,0,6,6,79,,,b,0,0.917357507642,,,2020_Feb_26_1011,59.9586367257,duckFrog,001,3,
duck,quackL.wav,20,landoltCTop.png,V1,frogFront.png,duckFront.png,Hcong,h,-20,landoltCL.png,,,,,0,7,7,32,,,h,0,0.833938643933,,,2020_Feb_26_1011,59.9586367257,duckFrog,001,3,
duck,ribbitR.wav,20,landoltCBottom.png,V1,frogFront.png,duckFront.png,HinCong,b,-20,landoltCR.png,,,,,0,8,8,74,,,b,0,1.38462784761,,,2020_Feb_26_1011,59.9586367257,duckFrog,001,3,
duck,ribbitR.wav,20,landoltCTop.png,V1,frogFront.png,duckFront.png,HinCong,h,-20,landoltCL.png,,,,,0,9,9,34,,,h,0,0.817719521016,,,2020_Feb_26_1011,59.9586367257,duckFrog,001,3,
duck,wnL.wav,-20,landoltCL.png,V1,duckFront.png,frogFront.png,HinCongWN,b,20,landoltCBottom.png,,,,,0,10,10,15,,,b,0,1.33722924141,,,2020_Feb_26_1011,59.9586367257,duckFrog,001,3,
duck,ribbitL.wav,-20,landoltCR.png,V1,duckFront.png,frogFront.png,HinCong,h,20,landoltCTop.png,,,,,0,11,11,38,,,h,0,1.03429669849,,,2020_Feb_26_1011,59.9586367257,duckFrog,001,3,
frog,ribbitL.wav,20,landoltCTop.png,V1,duckFront.png,frogFront.png,Lcong,h,-20,landoltCR.png,,,,,0,12,12,24,,,h,0,0.70053400271,,,2020_Feb_26_1011,59.9586367257,duckFrog,001,3,
duck,quackR.wav,-20,landoltCR.png,V1,duckFront.png,frogFront.png,Hcong,b,20,landoltCBottom.png,,,,,0,13,13,60,,,b,0,1.31743360523,,,2020_Feb_26_1011,59.9586367257,duckFrog,001,3,
duck,ribbitR.wav,20,landoltCBottom.png,V1,frogFront.png,duckFront.png,HinCong,b,-20,landoltCR.png,,,,,0,14,14,10,,,b,0,0.717202160056,,,2020_Feb_26_1011,59.9586367257,duckFrog,001,3,
duck,wnL.wav,20,landoltCTop.png,V1,frogFront.png,duckFront.png,HcongWN,h,-20,landoltCR.png,,,,,0,15,15,33,,,h,0,0.817523412101,,,2020_Feb_26_1011,59.9586367257,duckFrog,001,3,
frog,wnR.wav,-20,landoltCR.png,V1,frogFront.png,duckFront.png,LcongWN,b,20,landoltCBottom.png,,,,,0,16,16,21,,,b,0,1.35101624735,,,2020_Feb_26_1011,59.9586367257,duckFrog,001,3,
frog,ribbitL.wav,20,landoltCBottom.png,V1,duckFront.png,frogFront.png,Lcong,b,-20,landoltCL.png,,,,,0,17,17,16,,,b,0,1.38414435668,,,2020_Feb_26_1011,59.9586367257,duckFrog,001,3,
duck,quackR.wav,-20,landoltCR.png,V1,duckFront.png,frogFront.png,Hcong,h,20,landoltCTop.png,,,,,0,18,18,52,,,h,0,1.4010584749,,,2020_Feb_26_1011,59.9586367257,duckFrog,001,3,
duck,wnL.wav,-20,landoltCL.png,V1,duckFront.png,frogFront.png,HinCongWN,h,20,landoltCTop.png,,,,,0,19,19,39,,,h,0,1.31790903187,,,2020_Feb_26_1011,59.9586367257,duckFrog,001,3,
duck,wnR.wav,20,landoltCTop.png,V1,frogFront.png,duckFront.png,HinCongWN,h,-20,landoltCR.png,,,,,0,20,20,67,,,h,0,0.733861153421,,,2020_Feb_26_1011,59.9586367257,duckFrog,001,3,
duck,quackL.wav,20,landoltCTop.png,V1,frogFront.png,duckFront.png,Hcong,h,-20,landoltCL.png,,,,,0,21,21,0,,,h,0,0.684072217933,,,2020_Feb_26_1011,59.9586367257,duckFrog,001,3,
duck,quackL.wav,20,landoltCTop.png,V1,frogFront.png,duckFront.png,Hcong,h,-20,landoltCL.png,,,,,0,22,22,64,,,h,0,0.717392770588,,,2020_Feb_26_1011,59.9586367257,duckFrog,001,3,
frog,wnR.wav,20,landoltCBottom.png,V1,duckFront.png,frogFront.png,LinCongWN,b,-20,landoltCR.png,,,,,0,23,23,19,,,b,0,0.617531549709,,,2020_Feb_26_1011,59.9586367257,duckFrog,001,3,
frog,wnL.wav,-20,landoltCR.png,V1,frogFront.png,duckFront.png,LinCongWN,b,20,landoltCBottom.png,,,,,0,24,24,23,,,b,0,1.21754745835,,,2020_Feb_26_1011,59.9586367257,duckFrog,001,3,
duck,quackL.wav,20,landoltCTop.png,V1,frogFront.png,duckFront.png,Hcong,h,-20,landoltCL.png,,,,,0,25,25,48,,,h,0,0.650448521221,,,2020_Feb_26_1011,59.9586367257,duckFrog,001,3,
frog,wnR.wav,-20,landoltCR.png,V1,frogFront.png,duckFront.png,LcongWN,h,20,landoltCTop.png,,,,,0,26,26,29,,,h,0,0.717197761347,,,2020_Feb_26_1011,59.9586367257,duckFrog,001,3,
duck,ribbitL.wav,-20,landoltCR.png,V1,duckFront.png,frogFront.png,HinCong,b,20,landoltCBottom.png,,,,,0,27,27,14,,,b,0,1.13427228566,,,2020_Feb_26_1011,59.9586367257,duckFrog,001,3,
duck,ribbitL.wav,-20,landoltCR.png,V1,duckFront.png,frogFront.png,HinCong,h,20,landoltCTop.png,,,,,0,28,28,54,,,h,0,1.11797105359,,,2020_Feb_26_1011,59.9586367257,duckFrog,001,3,
frog,wnL.wav,20,landoltCBottom.png,V1,duckFront.png,frogFront.png,LcongWN,b,-20,landoltCR.png,,,,,0,29,29,17,,,s,0,1.3180054368,,,2020_Feb_26_1011,59.9586367257,duckFrog,001,3,
duck,quackL.wav,20,landoltCBottom.png,V1,frogFront.png,duckFront.png,Hcong,b,-20,landoltCR.png,,,,,0,30,30,56,,,b,0,0.833709178187,,,2020_Feb_26_1011,59.9586367257,duckFrog,001,3,
duck,wnL.wav,20,landoltCBottom.png,V1,frogFront.png,duckFront.png,HcongWN,b,-20,landoltCL.png,,,,,0,31,31,9,,,b,0,1.3347919926,,,2020_Feb_26_1011,59.9586367257,duckFrog,001,3,
duck,quackR.wav,-20,landoltCR.png,V1,duckFront.png,frogFront.png,Hcong,h,20,landoltCTop.png,,,,,0,32,32,4,,,h,0,0.883935418213,,,2020_Feb_26_1011,59.9586367257,duckFrog,001,3,
frog,wnL.wav,-20,landoltCR.png,V1,frogFront.png,duckFront.png,LinCongWN,h,20,landoltCTop.png,,,,,0,33,33,31,,,h,0,1.40306171823,,,2020_Feb_26_1011,59.9586367257,duckFrog,001,3,
duck,wnR.wav,-20,landoltCL.png,V1,duckFront.png,frogFront.png,HcongWN,h,20,landoltCTop.png,,,,,0,34,34,53,,,h,0,0.817542839708,,,2020_Feb_26_1011,59.9586367257,duckFrog,001,3,
frog,quackR.wav,20,landoltCBottom.png,V1,duckFront.png,frogFront.png,LinCong,b,-20,landoltCL.png,,,,,0,35,35,18,,,b,0,0.733883146939,,,2020_Feb_26_1011,59.9586367257,duckFrog,001,3,
duck,wnR.wav,-20,landoltCL.png,V1,duckFront.png,frogFront.png,HcongWN,h,20,landoltCTop.png,,,,,0,36,36,69,,,h,0,0.733715263064,,,2020_Feb_26_1011,59.9586367257,duckFrog,001,3,
duck,wnL.wav,-20,landoltCL.png,V1,duckFront.png,frogFront.png,HinCongWN,b,20,landoltCBottom.png,,,,,0,37,37,63,,,b,0,1.23457740914,,,2020_Feb_26_1011,59.9586367257,duckFrog,001,3,
duck,quackL.wav,20,landoltCBottom.png,V1,frogFront.png,duckFront.png,Hcong,b,-20,landoltCR.png,,,,,0,38,38,72,,,b,0,0.650533929409,,,2020_Feb_26_1011,59.9586367257,duckFrog,001,3,
frog,wnR.wav,20,landoltCTop.png,V1,duckFront.png,frogFront.png,LinCongWN,h,-20,landoltCL.png,,,,,0,39,39,27,,,h,0,1.2678693702,,,2020_Feb_26_1011,59.9586367257,duckFrog,001,3,
frog,quackL.wav,-20,landoltCL.png,V1,frogFront.png,duckFront.png,LinCong,h,20,landoltCTop.png,,,,,0,40,40,30,,,h,0,1.3177044921,,,2020_Feb_26_1011,59.9586367257,duckFrog,001,3,
duck,quackR.wav,-20,landoltCR.png,V1,duckFront.png,frogFront.png,Hcong,b,20,landoltCBottom.png,,,,,0,41,41,44,,,b,0,1.08464976781,,,2020_Feb_26_1011,59.9586367257,duckFrog,001,3,
duck,wnL.wav,-20,landoltCL.png,V1,duckFront.png,frogFront.png,HinCongWN,h,20,landoltCTop.png,,,,,0,42,42,71,,,h,0,0.634060781304,,,2020_Feb_26_1011,59.9586367257,duckFrog,001,3,
duck,wnR.wav,-20,landoltCL.png,V1,duckFront.png,frogFront.png,HcongWN,h,20,landoltCTop.png,,,,,0,43,43,37,,,h,0,0.90109879637,,,2020_Feb_26_1011,59.9586367257,duckFrog,001,3,
duck,wnR.wav,20,landoltCBottom.png,V1,frogFront.png,duckFront.png,HinCongWN,b,-20,landoltCL.png,,,,,0,44,44,11,,,b,0,0.750585394257,,,2020_Feb_26_1011,59.9586367257,duckFrog,001,3,
duck,wnR.wav,-20,landoltCL.png,V1,duckFront.png,frogFront.png,HcongWN,b,20,landoltCBottom.png,,,,,0,45,45,45,,,b,0,0.884077643001,,,2020_Feb_26_1011,59.9586367257,duckFrog,001,3,
duck,quackR.wav,-20,landoltCR.png,V1,duckFront.png,frogFront.png,Hcong,h,20,landoltCTop.png,,,,,0,46,46,36,,,h,0,1.38471728793,,,2020_Feb_26_1011,59.9586367257,duckFrog,001,3,
duck,ribbitR.wav,20,landoltCBottom.png,V1,frogFront.png,duckFront.png,HinCong,b,-20,landoltCR.png,,,,,0,47,47,42,,,b,0,0.633558229325,,,2020_Feb_26_1011,59.9586367257,duckFrog,001,3,
duck,wnR.wav,20,landoltCBottom.png,V1,frogFront.png,duckFront.png,HinCongWN,b,-20,landoltCL.png,,,,,0,48,48,59,,,b,0,0.734107114316,,,2020_Feb_26_1011,59.9586367257,duckFrog,001,3,
frog,ribbitR.wav,-20,landoltCL.png,V1,frogFront.png,duckFront.png,Lcong,h,20,landoltCTop.png,,,,,0,49,49,28,,,h,0,1.06723859599,,,2020_Feb_26_1011,59.9586367257,duckFrog,001,3,
duck,wnL.wav,20,landoltCBottom.png,V1,frogFront.png,duckFront.png,HcongWN,b,-20,landoltCL.png,,,,,0,50,50,41,,,b,0,1.11747253376,,,2020_Feb_26_1011,59.9586367257,duckFrog,001,3,
duck,wnR.wav,20,landoltCTop.png,V1,frogFront.png,duckFront.png,HinCongWN,h,-20,landoltCR.png,,,,,0,51,51,51,,,h,0,0.96768565099,,,2020_Feb_26_1011,59.9586367257,duckFrog,001,3,
frog,ribbitR.wav,-20,landoltCL.png,V1,frogFront.png,duckFront.png,Lcong,b,20,landoltCBottom.png,,,,,0,52,52,20,,,b,0,0.917110447059,,,2020_Feb_26_1011,59.9586367257,duckFrog,001,3,
duck,wnR.wav,-20,landoltCL.png,V1,duckFront.png,frogFront.png,HcongWN,b,20,landoltCBottom.png,,,,,0,53,53,77,,,b,0,0.867582501363,,,2020_Feb_26_1011,59.9586367257,duckFrog,001,3,
duck,ribbitL.wav,-20,landoltCR.png,V1,duckFront.png,frogFront.png,HinCong,h,20,landoltCTop.png,,,,,0,54,54,6,,,h,0,1.51807867523,,,2020_Feb_26_1011,59.9586367257,duckFrog,001,3,
duck,ribbitL.wav,-20,landoltCR.png,V1,duckFront.png,frogFront.png,HinCong,b,20,landoltCBottom.png,,,,,0,55,55,46,,,b,0,1.30147400586,,,2020_Feb_26_1011,59.9586367257,duckFrog,001,3,
duck,ribbitR.wav,20,landoltCBottom.png,V1,frogFront.png,duckFront.png,HinCong,b,-20,landoltCR.png,,,,,0,56,56,58,,,b,0,0.667106414927,,,2020_Feb_26_1011,59.9586367257,duckFrog,001,3,
duck,wnL.wav,20,landoltCTop.png,V1,frogFront.png,duckFront.png,HcongWN,h,-20,landoltCR.png,,,,,0,57,57,65,,,h,0,1.25109124526,,,2020_Feb_26_1011,59.9586367257,duckFrog,001,3,
duck,ribbitR.wav,20,landoltCTop.png,V1,frogFront.png,duckFront.png,HinCong,h,-20,landoltCL.png,,,,,0,58,58,66,,,h,0,0.834329395526,,,2020_Feb_26_1011,59.9586367257,duckFrog,001,3,
duck,wnR.wav,20,landoltCBottom.png,V1,frogFront.png,duckFront.png,HinCongWN,b,-20,landoltCL.png,,,,,0,59,59,43,,,b,0,0.70090202766,,,2020_Feb_26_1011,59.9586367257,duckFrog,001,3,
duck,quackL.wav,20,landoltCBottom.png,V1,frogFront.png,duckFront.png,Hcong,b,-20,landoltCR.png,,,,,0,60,60,40,,,b,0,0.684064886751,,,2020_Feb_26_1011,59.9586367257,duckFrog,001,3,
duck,wnR.wav,-20,landoltCL.png,V1,duckFront.png,frogFront.png,HcongWN,h,20,landoltCTop.png,,,,,0,61,61,5,,,h,0,0.766979732231,,,2020_Feb_26_1011,59.9586367257,duckFrog,001,3,
duck,wnR.wav,20,landoltCTop.png,V1,frogFront.png,duckFront.png,HinCongWN,h,-20,landoltCR.png,,,,,0,62,62,3,,,h,0,1.201122696,,,2020_Feb_26_1011,59.9586367257,duckFrog,001,3,
duck,quackR.wav,-20,landoltCR.png,V1,duckFront.png,frogFront.png,Hcong,h,20,landoltCTop.png,,,,,0,63,63,68,,,h,0,1.28431099426,,,2020_Feb_26_1011,59.9586367257,duckFrog,001,3,
duck,wnR.wav,20,landoltCBottom.png,V1,frogFront.png,duckFront.png,HinCongWN,b,-20,landoltCL.png,,,,,0,64,64,75,,,b,0,0.66712730877,,,2020_Feb_26_1011,59.9586367257,duckFrog,001,3,
frog,quackL.wav,-20,landoltCL.png,V1,frogFront.png,duckFront.png,LinCong,b,20,landoltCBottom.png,,,,,0,65,65,22,,,b,0,1.23407302436,,,2020_Feb_26_1011,59.9586367257,duckFrog,001,3,
duck,quackR.wav,-20,landoltCR.png,V1,duckFront.png,frogFront.png,Hcong,b,20,landoltCBottom.png,,,,,0,66,66,76,,,b,0,1.21795727099,,,2020_Feb_26_1011,59.9586367257,duckFrog,001,3,
duck,wnL.wav,-20,landoltCL.png,V1,duckFront.png,frogFront.png,HinCongWN,b,20,landoltCBottom.png,,,,,0,67,67,47,,,b,0,1.13447096049,,,2020_Feb_26_1011,59.9586367257,duckFrog,001,3,
duck,ribbitL.wav,-20,landoltCR.png,V1,duckFront.png,frogFront.png,HinCong,b,20,landoltCBottom.png,,,,,0,68,68,62,,,b,0,0.683978378904,,,2020_Feb_26_1011,59.9586367257,duckFrog,001,3,
duck,wnL.wav,-20,landoltCL.png,V1,duckFront.png,frogFront.png,HinCongWN,h,20,landoltCTop.png,,,,,0,69,69,7,,,h,0,1.10109652371,,,2020_Feb_26_1011,59.9586367257,duckFrog,001,3,
duck,wnL.wav,20,landoltCBottom.png,V1,frogFront.png,duckFront.png,HcongWN,b,-20,landoltCL.png,,,,,0,70,70,73,,,b,0,0.900511569329,,,2020_Feb_26_1011,59.9586367257,duckFrog,001,3,
duck,wnR.wav,20,landoltCTop.png,V1,frogFront.png,duckFront.png,HinCongWN,h,-20,landoltCR.png,,,,,0,71,71,35,,,h,0,0.750820358371,,,2020_Feb_26_1011,59.9586367257,duckFrog,001,3,
duck,wnR.wav,-20,landoltCL.png,V1,duckFront.png,frogFront.png,HcongWN,b,20,landoltCBottom.png,,,,,0,72,72,13,,,b,0,0.670313070455,,,2020_Feb_26_1011,59.9586367257,duckFrog,001,3,
duck,wnL.wav,20,landoltCTop.png,V1,frogFront.png,duckFront.png,HcongWN,h,-20,landoltCR.png,,,,,0,73,73,49,,,h,0,0.700807455505,,,2020_Feb_26_1011,59.9586367257,duckFrog,001,3,
duck,wnL.wav,-20,landoltCL.png,V1,duckFront.png,frogFront.png,HinCongWN,h,20,landoltCTop.png,,,,,0,74,74,55,,,h,0,1.05100004545,,,2020_Feb_26_1011,59.9586367257,duckFrog,001,3,
duck,wnL.wav,20,landoltCBottom.png,V1,frogFront.png,duckFront.png,HcongWN,b,-20,landoltCL.png,,,,,0,75,75,57,,,b,0,0.717368211161,,,2020_Feb_26_1011,59.9586367257,duckFrog,001,3,
duck,quackL.wav,20,landoltCBottom.png,V1,frogFront.png,duckFront.png,Hcong,b,-20,landoltCR.png,,,,,0,76,76,8,,,b,0,1.05118625727,,,2020_Feb_26_1011,59.9586367257,duckFrog,001,3,
duck,ribbitR.wav,20,landoltCTop.png,V1,frogFront.png,duckFront.png,HinCong,h,-20,landoltCL.png,,,,,0,77,77,2,,,h,0,1.45145699753,,,2020_Feb_26_1011,59.9586367257,duckFrog,001,3,
duck,ribbitL.wav,-20,landoltCR.png,V1,duckFront.png,frogFront.png,HinCong,b,20,landoltCBottom.png,,,,,0,78,78,78,,,b,0,1.03410462172,,,2020_Feb_26_1011,59.9586367257,duckFrog,001,3,
duck,wnR.wav,-20,landoltCL.png,V1,duckFront.png,frogFront.png,HcongWN,b,20,landoltCBottom.png,,,,,0,79,79,61,,,b,0,0.867586533524,,,2020_Feb_26_1011,59.9586367257,duckFrog,001,3,
duck,wnL.wav,-20,landoltCL.png,V1,duckFront.png,frogFront.png,HinCongWN,b,20,landoltCBottom.png,,,,,1,0,80,63,,,b,0,1.58478722733,,,2020_Feb_26_1011,59.9586367257,duckFrog,001,3,
duck,ribbitL.wav,-20,landoltCR.png,V1,duckFront.png,frogFront.png,HinCong,h,20,landoltCTop.png,,,,,1,1,81,38,,,h,0,1.28456355321,,,2020_Feb_26_1011,59.9586367257,duckFrog,001,3,
duck,quackR.wav,-20,landoltCR.png,V1,duckFront.png,frogFront.png,Hcong,h,20,landoltCTop.png,,,,,1,2,82,4,,,h,0,0.917542986339,,,2020_Feb_26_1011,59.9586367257,duckFrog,001,3,
duck,wnL.wav,20,landoltCBottom.png,V1,frogFront.png,duckFront.png,HcongWN,b,-20,landoltCL.png,,,,,1,3,83,57,,,b,0,0.617206778697,,,2020_Feb_26_1011,59.9586367257,duckFrog,001,3,
duck,wnR.wav,-20,landoltCL.png,V1,duckFront.png,frogFront.png,HcongWN,h,20,landoltCTop.png,,,,,1,4,84,53,,,h,0,0.700422568872,,,2020_Feb_26_1011,59.9586367257,duckFrog,001,3,
duck,quackL.wav,20,landoltCBottom.png,V1,frogFront.png,duckFront.png,Hcong,b,-20,landoltCR.png,,,,,1,5,85,56,,,b,0,0.700249553178,,,2020_Feb_26_1011,59.9586367257,duckFrog,001,3,
duck,wnL.wav,-20,landoltCL.png,V1,duckFront.png,frogFront.png,HinCongWN,b,20,landoltCBottom.png,,,,,1,6,86,79,,,b,0,1.83490012742,,,2020_Feb_26_1011,59.9586367257,duckFrog,001,3,
duck,quackL.wav,20,landoltCBottom.png,V1,frogFront.png,duckFront.png,Hcong,b,-20,landoltCR.png,,,,,1,7,87,40,,,b,0,0.750579162748,,,2020_Feb_26_1011,59.9586367257,duckFrog,001,3,
duck,quackL.wav,20,landoltCBottom.png,V1,frogFront.png,duckFront.png,Hcong,b,-20,landoltCR.png,,,,,1,8,88,8,,,b,0,0.917615564962,,,2020_Feb_26_1011,59.9586367257,duckFrog,001,3,
frog,ribbitL.wav,20,landoltCTop.png,V1,duckFront.png,frogFront.png,Lcong,h,-20,landoltCR.png,,,,,1,9,89,24,,,h,0,1.13444933352,,,2020_Feb_26_1011,59.9586367257,duckFrog,001,3,
duck,ribbitR.wav,20,landoltCBottom.png,V1,frogFront.png,duckFront.png,HinCong,b,-20,landoltCR.png,,,,,1,10,90,74,,,b,0,0.751007303319,,,2020_Feb_26_1011,59.9586367257,duckFrog,001,3,
duck,quackR.wav,-20,landoltCR.png,V1,duckFront.png,frogFront.png,Hcong,b,20,landoltCBottom.png,,,,,1,11,91,60,,,b,0,0.783979625194,,,2020_Feb_26_1011,59.9586367257,duckFrog,001,3,
duck,quackR.wav,-20,landoltCR.png,V1,duckFront.png,frogFront.png,Hcong,b,20,landoltCBottom.png,,,,,1,12,92,76,,,b,0,0.884427706565,,,2020_Feb_26_1011,59.9586367257,duckFrog,001,3,
duck,ribbitL.wav,-20,landoltCR.png,V1,duckFront.png,frogFront.png,HinCong,h,20,landoltCTop.png,,,,,1,13,93,70,,,h,0,0.884186510943,,,2020_Feb_26_1011,59.9586367257,duckFrog,001,3,
duck,quackL.wav,20,landoltCBottom.png,V1,frogFront.png,duckFront.png,Hcong,b,-20,landoltCR.png,,,,,1,14,94,72,,,b,0,0.600628061686,,,2020_Feb_26_1011,59.9586367257,duckFrog,001,3,
frog,quackL.wav,-20,landoltCL.png,V1,frogFront.png,duckFront.png,LinCong,h,20,landoltCTop.png,,,,,1,15,95,30,,,h,0,1.38436942373,,,2020_Feb_26_1011,59.9586367257,duckFrog,001,3,
duck,ribbitL.wav,-20,landoltCR.png,V1,duckFront.png,frogFront.png,HinCong,b,20,landoltCBottom.png,,,,,1,16,96,62,,,b,0,0.750719188174,,,2020_Feb_26_1011,59.9586367257,duckFrog,001,3,
duck,wnL.wav,20,landoltCTop.png,V1,frogFront.png,duckFront.png,HcongWN,h,-20,landoltCR.png,,,,,1,17,97,33,,,h,0,0.700533636162,,,2020_Feb_26_1011,59.9586367257,duckFrog,001,3,
duck,quackR.wav,-20,landoltCR.png,V1,duckFront.png,frogFront.png,Hcong,h,20,landoltCTop.png,,,,,1,18,98,52,,,h,0,0.883999199432,,,2020_Feb_26_1011,59.9586367257,duckFrog,001,3,
frog,wnR.wav,20,landoltCBottom.png,V1,duckFront.png,frogFront.png,LinCongWN,b,-20,landoltCR.png,,,,,1,19,99,19,,,b,0,1.18408248157,,,2020_Feb_26_1011,59.9586367257,duckFrog,001,3,
duck,quackL.wav,20,landoltCTop.png,V1,frogFront.png,duckFront.png,Hcong,h,-20,landoltCL.png,,,,,1,20,100,0,,,h,0,0.767656399592,,,2020_Feb_26_1011,59.9586367257,duckFrog,001,3,
duck,wnR.wav,-20,landoltCL.png,V1,duckFront.png,frogFront.png,HcongWN,h,20,landoltCTop.png,,,,,1,21,101,69,,,h,0,1.30099784611,,,2020_Feb_26_1011,59.9586367257,duckFrog,001,3,
duck,ribbitL.wav,-20,landoltCR.png,V1,duckFront.png,frogFront.png,HinCong,b,20,landoltCBottom.png,,,,,1,22,102,14,,,b,0,1.28452873013,,,2020_Feb_26_1011,59.9586367257,duckFrog,001,3,
duck,wnR.wav,-20,landoltCL.png,V1,duckFront.png,frogFront.png,HcongWN,h,20,landoltCTop.png,,,,,1,23,103,5,,,h,0,1.10102944345,,,2020_Feb_26_1011,59.9586367257,duckFrog,001,3,
duck,ribbitL.wav,-20,landoltCR.png,V1,duckFront.png,frogFront.png,HinCong,h,20,landoltCTop.png,,,,,1,24,104,54,,,h,0,0.750781503157,,,2020_Feb_26_1011,59.9586367257,duckFrog,001,3,
duck,ribbitL.wav,-20,landoltCR.png,V1,duckFront.png,frogFront.png,HinCong,b,20,landoltCBottom.png,,,,,1,25,105,46,,,b,0,1.18463048684,,,2020_Feb_26_1011,59.9586367257,duckFrog,001,3,
duck,quackR.wav,-20,landoltCR.png,V1,duckFront.png,frogFront.png,Hcong,h,20,landoltCTop.png,,,,,1,26,106,68,,,h,0,0.834238122392,,,2020_Feb_26_1011,59.9586367257,duckFrog,001,3,
duck,wnL.wav,20,landoltCTop.png,V1,frogFront.png,duckFront.png,HcongWN,h,-20,landoltCR.png,,,,,1,27,107,49,,,h,0,0.850837366714,,,2020_Feb_26_1011,59.9586367257,duckFrog,001,3,
frog,wnR.wav,-20,landoltCR.png,V1,frogFront.png,duckFront.png,LcongWN,h,20,landoltCTop.png,,,,,1,28,108,29,,,h,0,0.850640524674,,,2020_Feb_26_1011,59.9586367257,duckFrog,001,3,
duck,wnL.wav,-20,landoltCL.png,V1,duckFront.png,frogFront.png,HinCongWN,b,20,landoltCBottom.png,,,,,1,29,109,47,,,b,0,1.13442184163,,,2020_Feb_26_1011,59.9586367257,duckFrog,001,3,
frog,quackR.wav,20,landoltCBottom.png,V1,duckFront.png,frogFront.png,LinCong,b,-20,landoltCL.png,,,,,1,30,110,18,,,b,0,1.50090503343,,,2020_Feb_26_1011,59.9586367257,duckFrog,001,3,
duck,ribbitR.wav,20,landoltCBottom.png,V1,frogFront.png,duckFront.png,HinCong,b,-20,landoltCR.png,,,,,1,31,111,10,,,b,0,0.834193402246,,,2020_Feb_26_1011,59.9586367257,duckFrog,001,3,
duck,wnL.wav,-20,landoltCL.png,V1,duckFront.png,frogFront.png,HinCongWN,h,20,landoltCTop.png,,,,,1,32,112,7,,,h,0,1.16754665192,,,2020_Feb_26_1011,59.9586367257,duckFrog,001,3,
duck,wnL.wav,20,landoltCBottom.png,V1,frogFront.png,duckFront.png,HcongWN,b,-20,landoltCL.png,,,,,1,33,113,9,,,b,0,0.867285588829,,,2020_Feb_26_1011,59.9586367257,duckFrog,001,3,
frog,wnR.wav,-20,landoltCR.png,V1,frogFront.png,duckFront.png,LcongWN,b,20,landoltCBottom.png,,,,,1,34,114,21,,,b,0,0.817483090636,,,2020_Feb_26_1011,59.9586367257,duckFrog,001,3,
frog,ribbitR.wav,-20,landoltCL.png,V1,frogFront.png,duckFront.png,Lcong,b,20,landoltCBottom.png,,,,,1,35,115,20,,,b,0,0.684074783843,,,2020_Feb_26_1011,59.9586367257,duckFrog,001,3,
duck,quackR.wav,-20,landoltCR.png,V1,duckFront.png,frogFront.png,Hcong,b,20,landoltCBottom.png,,,,,1,36,116,44,,,b,0,0.700768966839,,,2020_Feb_26_1011,59.9586367257,duckFrog,001,3,
duck,ribbitL.wav,-20,landoltCR.png,V1,duckFront.png,frogFront.png,HinCong,h,20,landoltCTop.png,,,,,1,37,117,6,,,h,0,1.15126191499,,,2020_Feb_26_1011,59.9586367257,duckFrog,001,3,
frog,ribbitL.wav,20,landoltCBottom.png,V1,duckFront.png,frogFront.png,Lcong,b,-20,landoltCL.png,,,,,1,38,118,16,,,b,0,1.11727165958,,,2020_Feb_26_1011,59.9586367257,duckFrog,001,3,
duck,wnR.wav,-20,landoltCL.png,V1,duckFront.png,frogFront.png,HcongWN,b,20,landoltCBottom.png,,,,,1,39,119,61,,,b,0,0.717441156332,,,2020_Feb_26_1011,59.9586367257,duckFrog,001,3,
duck,wnR.wav,20,landoltCTop.png,V1,frogFront.png,duckFront.png,HinCongWN,h,-20,landoltCR.png,,,,,1,40,120,51,,,h,0,0.900525132005,,,2020_Feb_26_1011,59.9586367257,duckFrog,001,3,
duck,wnR.wav,-20,landoltCL.png,V1,duckFront.png,frogFront.png,HcongWN,b,20,landoltCBottom.png,,,,,1,41,121,77,,,b,0,0.700407906537,,,2020_Feb_26_1011,59.9586367257,duckFrog,001,3,
duck,ribbitR.wav,20,landoltCTop.png,V1,frogFront.png,duckFront.png,HinCong,h,-20,landoltCL.png,,,,,1,42,122,66,,,h,0,0.717184565248,,,2020_Feb_26_1011,59.9586367257,duckFrog,001,3,
duck,wnL.wav,20,landoltCBottom.png,V1,frogFront.png,duckFront.png,HcongWN,b,-20,landoltCL.png,,,,,1,43,123,73,,,b,0,0.667459777513,,,2020_Feb_26_1011,59.9586367257,duckFrog,001,3,
frog,quackR.wav,20,landoltCTop.png,V1,duckFront.png,frogFront.png,LinCong,h,-20,landoltCR.png,,,,,1,44,124,26,,,h,0,1.35127723715,,,2020_Feb_26_1011,59.9586367257,duckFrog,001,3,
duck,wnR.wav,20,landoltCTop.png,V1,frogFront.png,duckFront.png,HinCongWN,h,-20,landoltCR.png,,,,,1,45,125,3,,,h,0,1.38461355183,,,2020_Feb_26_1011,59.9586367257,duckFrog,001,3,
duck,wnR.wav,20,landoltCTop.png,V1,frogFront.png,duckFront.png,HinCongWN,h,-20,landoltCR.png,,,,,1,46,126,67,,,h,0,0.650736269818,,,2020_Feb_26_1011,59.9586367257,duckFrog,001,3,
duck,quackR.wav,-20,landoltCR.png,V1,duckFront.png,frogFront.png,Hcong,b,20,landoltCBottom.png,,,,,1,47,127,12,,,b,0,1.50091859611,,,2020_Feb_26_1011,59.9586367257,duckFrog,001,3,
duck,ribbitR.wav,20,landoltCBottom.png,V1,frogFront.png,duckFront.png,HinCong,b,-20,landoltCR.png,,,,,1,48,128,42,,,b,0,1.25094315555,,,2020_Feb_26_1011,59.9586367257,duckFrog,001,3,
duck,wnL.wav,-20,landoltCL.png,V1,duckFront.png,frogFront.png,HinCongWN,b,20,landoltCBottom.png,,,,,1,49,129,15,,,b,0,1.18403556205,,,2020_Feb_26_1011,59.9586367257,duckFrog,001,3,
duck,ribbitR.wav,20,landoltCTop.png,V1,frogFront.png,duckFront.png,HinCong,h,-20,landoltCL.png,,,,,1,50,130,34,,,h,0,1.11750039223,,,2020_Feb_26_1011,59.9586367257,duckFrog,001,3,
duck,quackR.wav,-20,landoltCR.png,V1,duckFront.png,frogFront.png,Hcong,h,20,landoltCTop.png,,,,,1,51,131,36,,,h,0,1.28432638972,,,2020_Feb_26_1011,59.9586367257,duckFrog,001,3,
duck,wnL.wav,20,landoltCTop.png,V1,frogFront.png,duckFront.png,HcongWN,h,-20,landoltCR.png,,,,,1,52,132,65,,,h,0,0.750329902832,,,2020_Feb_26_1011,59.9586367257,duckFrog,001,3,
frog,wnL.wav,20,landoltCTop.png,V1,duckFront.png,frogFront.png,LcongWN,h,-20,landoltCL.png,,,,,1,53,133,25,,,h,0,1.31789766854,,,2020_Feb_26_1011,59.9586367257,duckFrog,001,3,
duck,wnR.wav,20,landoltCBottom.png,V1,frogFront.png,duckFront.png,HinCongWN,b,-20,landoltCL.png,,,,,1,54,134,11,,,b,0,0.784175000997,,,2020_Feb_26_1011,59.9586367257,duckFrog,001,3,
frog,wnL.wav,-20,landoltCR.png,V1,frogFront.png,duckFront.png,LinCongWN,b,20,landoltCBottom.png,,,,,1,55,135,23,,,b,0,0.684020533154,,,2020_Feb_26_1011,59.9586367257,duckFrog,001,3,
duck,ribbitR.wav,20,landoltCTop.png,V1,frogFront.png,duckFront.png,HinCong,h,-20,landoltCL.png,,,,,1,56,136,50,,,h,0,1.23405323019,,,2020_Feb_26_1011,59.9586367257,duckFrog,001,3,
duck,wnR.wav,-20,landoltCL.png,V1,duckFront.png,frogFront.png,HcongWN,h,20,landoltCTop.png,,,,,1,57,137,37,,,h,0,1.08412448921,,,2020_Feb_26_1011,59.9586367257,duckFrog,001,3,
frog,wnL.wav,20,landoltCBottom.png,V1,duckFront.png,frogFront.png,LcongWN,b,-20,landoltCR.png,,,,,1,58,138,17,,,b,0,1.01748814915,,,2020_Feb_26_1011,59.9586367257,duckFrog,001,3,
duck,wnR.wav,-20,landoltCL.png,V1,duckFront.png,frogFront.png,HcongWN,b,20,landoltCBottom.png,,,,,1,59,139,45,,,b,0,0.950706285308,,,2020_Feb_26_1011,59.9586367257,duckFrog,001,3,
duck,wnR.wav,20,landoltCBottom.png,V1,frogFront.png,duckFront.png,HinCongWN,b,-20,landoltCL.png,,,,,1,60,140,75,,,b,0,0.750563400725,,,2020_Feb_26_1011,59.9586367257,duckFrog,001,3,
frog,ribbitR.wav,-20,landoltCL.png,V1,frogFront.png,duckFront.png,Lcong,h,20,landoltCTop.png,,,,,1,61,141,28,,,h,0,0.600376968971,,,2020_Feb_26_1011,59.9586367257,duckFrog,001,3,
duck,ribbitR.wav,20,landoltCBottom.png,V1,frogFront.png,duckFront.png,HinCong,b,-20,landoltCR.png,,,,,1,62,142,58,,,b,0,1.11753338251,,,2020_Feb_26_1011,59.9586367257,duckFrog,001,3,
duck,ribbitL.wav,-20,landoltCR.png,V1,duckFront.png,frogFront.png,HinCong,b,20,landoltCBottom.png,,,,,1,63,143,78,,,b,0,0.734120676992,,,2020_Feb_26_1011,59.9586367257,duckFrog,001,3,
duck,quackL.wav,20,landoltCTop.png,V1,frogFront.png,duckFront.png,Hcong,h,-20,landoltCL.png,,,,,1,64,144,32,,,h,0,0.800582901647,,,2020_Feb_26_1011,59.9586367257,duckFrog,001,3,
frog,quackL.wav,-20,landoltCL.png,V1,frogFront.png,duckFront.png,LinCong,b,20,landoltCBottom.png,,,,,1,65,145,22,,,b,0,1.21728426921,,,2020_Feb_26_1011,59.9586367257,duckFrog,001,3,
frog,wnR.wav,20,landoltCTop.png,V1,duckFront.png,frogFront.png,LinCongWN,h,-20,landoltCL.png,,,,,1,66,146,27,,,h,0,1.30086368561,,,2020_Feb_26_1011,59.9586367257,duckFrog,001,3,
duck,wnR.wav,20,landoltCBottom.png,V1,frogFront.png,duckFront.png,HinCongWN,b,-20,landoltCL.png,,,,,1,67,147,59,,,b,0,0.73407559027,,,2020_Feb_26_1011,59.9586367257,duckFrog,001,3,
duck,wnR.wav,20,landoltCTop.png,V1,frogFront.png,duckFront.png,HinCongWN,h,-20,landoltCR.png,,,,,1,68,148,35,,,h,0,1.20116668304,,,2020_Feb_26_1011,59.9586367257,duckFrog,001,3,
duck,wnL.wav,-20,landoltCL.png,V1,duckFront.png,frogFront.png,HinCongWN,h,20,landoltCTop.png,,,,,1,69,149,55,,,h,0,1.10082783617,,,2020_Feb_26_1011,59.9586367257,duckFrog,001,3,
duck,wnL.wav,-20,landoltCL.png,V1,duckFront.png,frogFront.png,HinCongWN,h,20,landoltCTop.png,,,,,1,70,150,39,,,h,0,1.16784576383,,,2020_Feb_26_1011,59.9586367257,duckFrog,001,3,
frog,wnL.wav,-20,landoltCR.png,V1,frogFront.png,duckFront.png,LinCongWN,h,20,landoltCTop.png,,,,,1,71,151,31,,,h,0,0.884414877,,,2020_Feb_26_1011,59.9586367257,duckFrog,001,3,
duck,wnR.wav,20,landoltCBottom.png,V1,frogFront.png,duckFront.png,HinCongWN,b,-20,landoltCL.png,,,,,1,72,152,43,,,b,0,1.15062007071,,,2020_Feb_26_1011,59.9586367257,duckFrog,001,3,
duck,wnR.wav,-20,landoltCL.png,V1,duckFront.png,frogFront.png,HcongWN,b,20,landoltCBottom.png,,,,,1,73,153,13,,,b,0,0.650447054999,,,2020_Feb_26_1011,59.9586367257,duckFrog,001,3,
duck,quackL.wav,20,landoltCTop.png,V1,frogFront.png,duckFront.png,Hcong,h,-20,landoltCL.png,,,,,1,74,154,64,,,h,0,0.767280310363,,,2020_Feb_26_1011,59.9586367257,duckFrog,001,3,
duck,ribbitR.wav,20,landoltCTop.png,V1,frogFront.png,duckFront.png,HinCong,h,-20,landoltCL.png,,,,,1,75,155,2,,,h,0,1.06778953371,,,2020_Feb_26_1011,59.9586367257,duckFrog,001,3,
duck,wnL.wav,20,landoltCTop.png,V1,frogFront.png,duckFront.png,HcongWN,h,-20,landoltCR.png,,,,,1,76,156,1,,,h,0,1.16791540998,,,2020_Feb_26_1011,59.9586367257,duckFrog,001,3,
duck,wnL.wav,20,landoltCBottom.png,V1,frogFront.png,duckFront.png,HcongWN,b,-20,landoltCL.png,,,,,1,77,157,41,,,b,0,1.1010646331,,,2020_Feb_26_1011,59.9586367257,duckFrog,001,3,
duck,wnL.wav,-20,landoltCL.png,V1,duckFront.png,frogFront.png,HinCongWN,h,20,landoltCTop.png,,,,,1,78,158,71,,,h,0,0.734064226941,,,2020_Feb_26_1011,59.9586367257,duckFrog,001,3,
duck,quackL.wav,20,landoltCTop.png,V1,frogFront.png,duckFront.png,Hcong,h,-20,landoltCL.png,,,,,1,79,159,48,,,h,0,0.750719554737,,,2020_Feb_26_1011,59.9586367257,duckFrog,001,3,
duck,ribbitL.wav,-20,landoltCR.png,V1,duckFront.png,frogFront.png,HinCong,b,20,landoltCBottom.png,,,,,2,0,160,46,,,b,0,1.13422536616,,,2020_Feb_26_1011,59.9586367257,duckFrog,001,3,
duck,quackL.wav,20,landoltCBottom.png,V1,frogFront.png,duckFront.png,Hcong,b,-20,landoltCR.png,,,,,2,1,161,8,,,b,0,1.30098904869,,,2020_Feb_26_1011,59.9586367257,duckFrog,001,3,
frog,quackR.wav,20,landoltCBottom.png,V1,duckFront.png,frogFront.png,LinCong,b,-20,landoltCL.png,,,,,2,2,162,18,,,b,0,0.717435657949,,,2020_Feb_26_1011,59.9586367257,duckFrog,001,3,
duck,wnR.wav,-20,landoltCL.png,V1,duckFront.png,frogFront.png,HcongWN,b,20,landoltCBottom.png,,,,,2,3,163,45,,,b,0,0.783913278079,,,2020_Feb_26_1011,59.9586367257,duckFrog,001,3,
frog,ribbitL.wav,20,landoltCBottom.png,V1,duckFront.png,frogFront.png,Lcong,b,-20,landoltCL.png,,,,,2,4,164,16,,,b,0,0.667169096458,,,2020_Feb_26_1011,59.9586367257,duckFrog,001,3,
duck,quackR.wav,-20,landoltCR.png,V1,duckFront.png,frogFront.png,Hcong,b,20,landoltCBottom.png,,,,,2,5,165,12,,,b,0,0.750534809151,,,2020_Feb_26_1011,59.9586367257,duckFrog,001,3,
duck,wnL.wav,-20,landoltCL.png,V1,duckFront.png,frogFront.png,HinCongWN,h,20,landoltCTop.png,,,,,2,6,166,39,,,h,0,1.36787391553,,,2020_Feb_26_1011,59.9586367257,duckFrog,001,3,
frog,wnR.wav,20,landoltCBottom.png,V1,duckFront.png,frogFront.png,LinCongWN,b,-20,landoltCR.png,,,,,2,7,167,19,,,b,0,0.683793633318,,,2020_Feb_26_1011,59.9586367257,duckFrog,001,3,
duck,wnL.wav,-20,landoltCL.png,V1,duckFront.png,frogFront.png,HinCongWN,b,20,landoltCBottom.png,,,,,2,8,168,15,,,b,0,0.650423595245,,,2020_Feb_26_1011,59.9586367257,duckFrog,001,3,
duck,quackL.wav,20,landoltCTop.png,V1,frogFront.png,duckFront.png,Hcong,h,-20,landoltCL.png,,,,,2,9,169,32,,,h,0,0.666880248202,,,2020_Feb_26_1011,59.9586367257,duckFrog,001,3,
duck,ribbitR.wav,20,landoltCBottom.png,V1,frogFront.png,duckFront.png,HinCong,b,-20,landoltCR.png,,,,,2,10,170,74,,,b,0,1.13451531409,,,2020_Feb_26_1011,59.9586367257,duckFrog,001,3,
frog,wnR.wav,-20,landoltCR.png,V1,frogFront.png,duckFront.png,LcongWN,h,20,landoltCTop.png,,,,,2,11,171,29,,,h,0,0.750788101213,,,2020_Feb_26_1011,59.9586367257,duckFrog,001,3,
duck,ribbitR.wav,20,landoltCBottom.png,V1,frogFront.png,duckFront.png,HinCong,b,-20,landoltCR.png,,,,,2,12,172,58,,,b,0,0.700401675014,,,2020_Feb_26_1011,59.9586367257,duckFrog,001,3,
duck,quackR.wav,-20,landoltCR.png,V1,duckFront.png,frogFront.png,Hcong,h,20,landoltCTop.png,,,,,2,13,173,36,,,h,0,1.05092600059,,,2020_Feb_26_1011,59.9586367257,duckFrog,001,3,
duck,wnL.wav,20,landoltCBottom.png,V1,frogFront.png,duckFront.png,HcongWN,b,-20,landoltCL.png,,,,,2,14,174,41,,,b,0,1.1675602146,,,2020_Feb_26_1011,59.9586367257,duckFrog,001,3,
duck,wnR.wav,20,landoltCTop.png,V1,frogFront.png,duckFront.png,HinCongWN,h,-20,landoltCR.png,,,,,2,15,175,35,,,h,0,0.750791033672,,,2020_Feb_26_1011,59.9586367257,duckFrog,001,3,
duck,wnL.wav,20,landoltCBottom.png,V1,frogFront.png,duckFront.png,HcongWN,b,-20,landoltCL.png,,,,,2,16,176,9,,,b,0,1.01765969863,,,2020_Feb_26_1011,59.9586367257,duckFrog,001,3,
duck,quackR.wav,-20,landoltCR.png,V1,duckFront.png,frogFront.png,Hcong,b,20,landoltCBottom.png,,,,,2,17,177,44,,,h,0,1.08448005114,,,2020_Feb_26_1011,59.9586367257,duckFrog,001,3,
duck,wnL.wav,20,landoltCTop.png,V1,frogFront.png,duckFront.png,HcongWN,h,-20,landoltCR.png,,,,,2,18,178,33,,,h,0,1.23418775723,,,2020_Feb_26_1011,59.9586367257,duckFrog,001,3,
duck,wnL.wav,20,landoltCTop.png,V1,frogFront.png,duckFront.png,HcongWN,h,-20,landoltCR.png,,,,,2,19,179,49,,,h,0,0.950944915036,,,2020_Feb_26_1011,59.9586367257,duckFrog,001,3,
duck,wnL.wav,20,landoltCTop.png,V1,frogFront.png,duckFront.png,HcongWN,h,-20,landoltCR.png,,,,,2,20,180,1,,,h,0,0.934251098573,,,2020_Feb_26_1011,59.9586367257,duckFrog,001,3,
duck,ribbitL.wav,-20,landoltCR.png,V1,duckFront.png,frogFront.png,HinCong,h,20,landoltCTop.png,,,,,2,21,181,38,,,h,0,1.4177394618,,,2020_Feb_26_1011,59.9586367257,duckFrog,001,3,
duck,quackL.wav,20,landoltCBottom.png,V1,frogFront.png,duckFront.png,Hcong,b,-20,landoltCR.png,,,,,2,22,182,56,,,b,0,0.817188010886,,,2020_Feb_26_1011,59.9586367257,duckFrog,001,3,
duck,wnR.wav,-20,landoltCL.png,V1,duckFront.png,frogFront.png,HcongWN,h,20,landoltCTop.png,,,,,2,23,183,69,,,h,0,1.00077930379,,,2020_Feb_26_1011,59.9586367257,duckFrog,001,3,
duck,quackL.wav,20,landoltCBottom.png,V1,frogFront.png,duckFront.png,Hcong,b,-20,landoltCR.png,,,,,2,24,184,40,,,b,0,0.683866211941,,,2020_Feb_26_1011,59.9586367257,duckFrog,001,3,
duck,wnL.wav,20,landoltCTop.png,V1,frogFront.png,duckFront.png,HcongWN,h,-20,landoltCR.png,,,,,2,25,185,65,,,h,0,0.717451419972,,,2020_Feb_26_1011,59.9586367257,duckFrog,001,3,
duck,wnR.wav,-20,landoltCL.png,V1,duckFront.png,frogFront.png,HcongWN,h,20,landoltCTop.png,,,,,2,26,186,5,,,h,0,0.900681286003,,,2020_Feb_26_1011,59.9586367257,duckFrog,001,3,
duck,wnR.wav,-20,landoltCL.png,V1,duckFront.png,frogFront.png,HcongWN,h,20,landoltCTop.png,,,,,2,27,187,37,,,h,0,1.35126734005,,,2020_Feb_26_1011,59.9586367257,duckFrog,001,3,
duck,wnL.wav,-20,landoltCL.png,V1,duckFront.png,frogFront.png,HinCongWN,h,20,landoltCTop.png,,,,,2,28,188,55,,,h,0,1.00101206858,,,2020_Feb_26_1011,59.9586367257,duckFrog,001,3,
duck,ribbitR.wav,20,landoltCTop.png,V1,frogFront.png,duckFront.png,HinCong,h,-20,landoltCL.png,,,,,2,29,189,34,,,h,0,1.25090759936,,,2020_Feb_26_1011,59.9586367257,duckFrog,001,3,
duck,wnL.wav,-20,landoltCL.png,V1,duckFront.png,frogFront.png,HinCongWN,h,20,landoltCTop.png,,,,,2,30,190,7,,,h,0,1.15058378139,,,2020_Feb_26_1011,59.9586367257,duckFrog,001,3,
duck,wnL.wav,20,landoltCBottom.png,V1,frogFront.png,duckFront.png,HcongWN,b,-20,landoltCL.png,,,,,2,31,191,57,,,b,0,1.05074088844,,,2020_Feb_26_1011,59.9586367257,duckFrog,001,3,
frog,ribbitR.wav,-20,landoltCL.png,V1,frogFront.png,duckFront.png,Lcong,b,20,landoltCBottom.png,,,,,2,32,192,20,,,b,0,0.784102788923,,,2020_Feb_26_1011,59.9586367257,duckFrog,001,3,
duck,ribbitR.wav,20,landoltCTop.png,V1,frogFront.png,duckFront.png,HinCong,h,-20,landoltCL.png,,,,,2,33,193,66,,,h,0,1.20105158362,,,2020_Feb_26_1011,59.9586367257,duckFrog,001,3,
duck,ribbitR.wav,20,landoltCTop.png,V1,frogFront.png,duckFront.png,HinCong,h,-20,landoltCL.png,,,,,2,34,194,2,,,h,0,0.700804156484,,,2020_Feb_26_1011,59.9586367257,duckFrog,001,3,
duck,ribbitL.wav,-20,landoltCR.png,V1,duckFront.png,frogFront.png,HinCong,b,20,landoltCBottom.png,,,,,2,35,195,62,,,b,0,1.0174540592,,,2020_Feb_26_1011,59.9586367257,duckFrog,001,3,
duck,wnR.wav,-20,landoltCL.png,V1,duckFront.png,frogFront.png,HcongWN,b,20,landoltCBottom.png,,,,,2,36,196,61,,,b,0,0.850878054713,,,2020_Feb_26_1011,59.9586367257,duckFrog,001,3,
duck,quackR.wav,-20,landoltCR.png,V1,duckFront.png,frogFront.png,Hcong,h,20,landoltCTop.png,,,,,2,37,197,52,,,h,0,0.934278223926,,,2020_Feb_26_1011,59.9586367257,duckFrog,001,3,
duck,ribbitR.wav,20,landoltCBottom.png,V1,frogFront.png,duckFront.png,HinCong,b,-20,landoltCR.png,,,,,2,38,198,10,,,b,0,1.15066039216,,,2020_Feb_26_1011,59.9586367257,duckFrog,001,3,
frog,wnL.wav,-20,landoltCR.png,V1,frogFront.png,duckFront.png,LinCongWN,h,20,landoltCTop.png,,,,,2,39,199,31,,,h,0,1.36745054023,,,2020_Feb_26_1011,59.9586367257,duckFrog,001,3,
duck,quackR.wav,-20,landoltCR.png,V1,duckFront.png,frogFront.png,Hcong,h,20,landoltCTop.png,,,,,2,40,200,68,,,h,0,0.934247066427,,,2020_Feb_26_1011,59.9586367257,duckFrog,001,3,
duck,quackR.wav,-20,landoltCR.png,V1,duckFront.png,frogFront.png,Hcong,h,20,landoltCTop.png,,,,,2,41,201,4,,,h,0,0.784223020179,,,2020_Feb_26_1011,59.9586367257,duckFrog,001,3,
frog,wnR.wav,-20,landoltCR.png,V1,frogFront.png,duckFront.png,LcongWN,b,20,landoltCBottom.png,,,,,2,42,202,21,,,b,0,1.01771431588,,,2020_Feb_26_1011,59.9586367257,duckFrog,001,3,
duck,ribbitL.wav,-20,landoltCR.png,V1,duckFront.png,frogFront.png,HinCong,b,20,landoltCBottom.png,,,,,2,43,203,78,,,b,0,1.05106969162,,,2020_Feb_26_1011,59.9586367257,duckFrog,001,3,
duck,quackL.wav,20,landoltCBottom.png,V1,frogFront.png,duckFront.png,Hcong,b,-20,landoltCR.png,,,,,2,44,204,72,,,b,0,0.824029095966,,,2020_Feb_26_1011,59.9586367257,duckFrog,001,3,
duck,wnR.wav,-20,landoltCL.png,V1,duckFront.png,frogFront.png,HcongWN,b,20,landoltCBottom.png,,,,,2,45,205,13,,,b,0,0.650485177102,,,2020_Feb_26_1011,59.9586367257,duckFrog,001,3,
duck,wnR.wav,20,landoltCTop.png,V1,frogFront.png,duckFront.png,HinCongWN,h,-20,landoltCR.png,,,,,2,46,206,67,,,h,0,1.46797816483,,,2020_Feb_26_1011,59.9586367257,duckFrog,001,3,
duck,wnL.wav,20,landoltCBottom.png,V1,frogFront.png,duckFront.png,HcongWN,b,-20,landoltCL.png,,,,,2,47,207,73,,,b,0,0.68404179356,,,2020_Feb_26_1011,59.9586367257,duckFrog,001,3,
duck,quackR.wav,-20,landoltCR.png,V1,duckFront.png,frogFront.png,Hcong,b,20,landoltCBottom.png,,,,,2,48,208,60,,,b,0,0.55047403372,,,2020_Feb_26_1011,59.9586367257,duckFrog,001,3,
duck,ribbitL.wav,-20,landoltCR.png,V1,duckFront.png,frogFront.png,HinCong,h,20,landoltCTop.png,,,,,2,49,209,70,,,h,0,1.10124681276,,,2020_Feb_26_1011,59.9586367257,duckFrog,001,3,
frog,quackL.wav,-20,landoltCL.png,V1,frogFront.png,duckFront.png,LinCong,h,20,landoltCTop.png,,,,,2,50,210,30,,,h,0,1.25117152161,,,2020_Feb_26_1011,59.9586367257,duckFrog,001,3,
duck,quackL.wav,20,landoltCTop.png,V1,frogFront.png,duckFront.png,Hcong,h,-20,landoltCL.png,,,,,2,51,211,64,,,h,0,1.51742730042,,,2020_Feb_26_1011,59.9586367257,duckFrog,001,3,
duck,wnR.wav,20,landoltCBottom.png,V1,frogFront.png,duckFront.png,HinCongWN,b,-20,landoltCL.png,,,,,2,52,212,11,,,b,0,1.23474419334,,,2020_Feb_26_1011,59.9586367257,duckFrog,001,3,
frog,quackL.wav,-20,landoltCL.png,V1,frogFront.png,duckFront.png,LinCong,b,20,landoltCBottom.png,,,,,2,53,213,22,,,b,0,1.33405447649,,,2020_Feb_26_1011,59.9586367257,duckFrog,001,3,
duck,wnR.wav,-20,landoltCL.png,V1,duckFront.png,frogFront.png,HcongWN,b,20,landoltCBottom.png,,,,,2,54,214,77,,,b,0,0.617343871651,,,2020_Feb_26_1011,59.9586367257,duckFrog,001,3,
duck,wnR.wav,20,landoltCBottom.png,V1,frogFront.png,duckFront.png,HinCongWN,b,-20,landoltCL.png,,,,,2,55,215,75,,,b,0,0.867033762988,,,2020_Feb_26_1011,59.9586367257,duckFrog,001,3,
frog,wnL.wav,-20,landoltCR.png,V1,frogFront.png,duckFront.png,LinCongWN,b,20,landoltCBottom.png,,,,,2,56,216,23,,,b,0,1.2009397832,,,2020_Feb_26_1011,59.9586367257,duckFrog,001,3,
duck,wnL.wav,-20,landoltCL.png,V1,duckFront.png,frogFront.png,HinCongWN,h,20,landoltCTop.png,,,,,2,57,217,71,,,h,0,0.750778570684,,,2020_Feb_26_1011,59.9586367257,duckFrog,001,3,
duck,quackL.wav,20,landoltCTop.png,V1,frogFront.png,duckFront.png,Hcong,h,-20,landoltCL.png,,,,,2,58,218,0,,,h,0,1.25114659562,,,2020_Feb_26_1011,59.9586367257,duckFrog,001,3,
frog,ribbitR.wav,-20,landoltCL.png,V1,frogFront.png,duckFront.png,Lcong,h,20,landoltCTop.png,,,,,2,59,219,28,,,h,0,0.833954039408,,,2020_Feb_26_1011,59.9586367257,duckFrog,001,3,
duck,ribbitL.wav,-20,landoltCR.png,V1,duckFront.png,frogFront.png,HinCong,h,20,landoltCTop.png,,,,,2,60,220,6,,,h,0,0.834195601579,,,2020_Feb_26_1011,59.9586367257,duckFrog,001,3,
duck,wnR.wav,20,landoltCTop.png,V1,frogFront.png,duckFront.png,HinCongWN,h,-20,landoltCR.png,,,,,2,61,221,51,,,h,0,0.700352922722,,,2020_Feb_26_1011,59.9586367257,duckFrog,001,3,
duck,wnR.wav,20,landoltCTop.png,V1,frogFront.png,duckFront.png,HinCongWN,h,-20,landoltCR.png,,,,,2,62,222,3,,,h,0,1.20120847072,,,2020_Feb_26_1011,59.9586367257,duckFrog,001,3,
duck,wnL.wav,-20,landoltCL.png,V1,duckFront.png,frogFront.png,HinCongWN,b,20,landoltCBottom.png,,,,,2,63,223,79,,,b,0,0.783685645132,,,2020_Feb_26_1011,59.9586367257,duckFrog,001,3,
frog,wnR.wav,20,landoltCTop.png,V1,duckFront.png,frogFront.png,LinCongWN,h,-20,landoltCL.png,,,,,2,64,224,27,,,h,0,0.800591699051,,,2020_Feb_26_1011,59.9586367257,duckFrog,001,3,
duck,wnR.wav,20,landoltCBottom.png,V1,frogFront.png,duckFront.png,HinCongWN,b,-20,landoltCL.png,,,,,2,65,225,43,,,b,0,0.63406737936,,,2020_Feb_26_1011,59.9586367257,duckFrog,001,3,
duck,quackR.wav,-20,landoltCR.png,V1,duckFront.png,frogFront.png,Hcong,b,20,landoltCBottom.png,,,,,2,66,226,76,,,b,0,0.834165910332,,,2020_Feb_26_1011,59.9586367257,duckFrog,001,3,
frog,wnL.wav,20,landoltCTop.png,V1,duckFront.png,frogFront.png,LcongWN,h,-20,landoltCL.png,,,,,2,67,227,25,,,h,0,0.967591445398,,,2020_Feb_26_1011,59.9586367257,duckFrog,001,3,
frog,ribbitL.wav,20,landoltCTop.png,V1,duckFront.png,frogFront.png,Lcong,h,-20,landoltCR.png,,,,,2,68,228,24,,,h,0,0.784147142534,,,2020_Feb_26_1011,59.9586367257,duckFrog,001,3,
frog,quackR.wav,20,landoltCTop.png,V1,duckFront.png,frogFront.png,LinCong,h,-20,landoltCR.png,,,,,2,69,229,26,,,h,0,1.43489294287,,,2020_Feb_26_1011,59.9586367257,duckFrog,001,3,
frog,wnL.wav,20,landoltCBottom.png,V1,duckFront.png,frogFront.png,LcongWN,b,-20,landoltCR.png,,,,,2,70,230,17,,,b,0,0.734100149697,,,2020_Feb_26_1011,59.9586367257,duckFrog,001,3,
duck,ribbitL.wav,-20,landoltCR.png,V1,duckFront.png,frogFront.png,HinCong,b,20,landoltCBottom.png,,,,,2,71,231,14,,,b,0,0.650460251112,,,2020_Feb_26_1011,59.9586367257,duckFrog,001,3,
duck,ribbitL.wav,-20,landoltCR.png,V1,duckFront.png,frogFront.png,HinCong,h,20,landoltCTop.png,,,,,2,72,232,54,,,h,0,0.800824830396,,,2020_Feb_26_1011,59.9586367257,duckFrog,001,3,
duck,wnL.wav,-20,landoltCL.png,V1,duckFront.png,frogFront.png,HinCongWN,b,20,landoltCBottom.png,,,,,2,73,233,47,,,b,0,0.700756137288,,,2020_Feb_26_1011,59.9586367257,duckFrog,001,3,
duck,ribbitR.wav,20,landoltCBottom.png,V1,frogFront.png,duckFront.png,HinCong,b,-20,landoltCR.png,,,,,2,74,234,42,,,b,0,0.900851002676,,,2020_Feb_26_1011,59.9586367257,duckFrog,001,3,
duck,quackL.wav,20,landoltCTop.png,V1,frogFront.png,duckFront.png,Hcong,h,-20,landoltCL.png,,,,,2,75,235,48,,,h,0,1.11770676478,,,2020_Feb_26_1011,59.9586367257,duckFrog,001,3,
duck,wnR.wav,-20,landoltCL.png,V1,duckFront.png,frogFront.png,HcongWN,h,20,landoltCTop.png,,,,,2,76,236,53,,,h,0,0.68363418027,,,2020_Feb_26_1011,59.9586367257,duckFrog,001,3,
duck,wnR.wav,20,landoltCBottom.png,V1,frogFront.png,duckFront.png,HinCongWN,b,-20,landoltCL.png,,,,,2,77,237,59,,,b,0,0.667140871446,,,2020_Feb_26_1011,59.9586367257,duckFrog,001,3,
duck,ribbitR.wav,20,landoltCTop.png,V1,frogFront.png,duckFront.png,HinCong,h,-20,landoltCL.png,,,,,2,78,238,50,,,h,0,0.684021632827,,,2020_Feb_26_1011,59.9586367257,duckFrog,001,3,
duck,wnL.wav,-20,landoltCL.png,V1,duckFront.png,frogFront.png,HinCongWN,b,20,landoltCBottom.png,,,,,2,79,239,63,,,b,0,0.74956819386,,,2020_Feb_26_1011,59.9586367257,duckFrog,001,3,
duck,quackR.wav,-20,landoltCR.png,V1,duckFront.png,frogFront.png,Hcong,b,20,landoltCBottom.png,,,,,3,0,240,60,,,b,0,1.23451362792,,,2020_Feb_26_1011,59.9586367257,duckFrog,001,3,
duck,wnL.wav,20,landoltCTop.png,V1,frogFront.png,duckFront.png,HcongWN,h,-20,landoltCR.png,,,,,3,1,241,49,,,h,0,0.733855655053,,,2020_Feb_26_1011,59.9586367257,duckFrog,001,3,
duck,quackR.wav,-20,landoltCR.png,V1,duckFront.png,frogFront.png,Hcong,h,20,landoltCTop.png,,,,,3,2,242,68,,,h,0,0.667132807153,,,2020_Feb_26_1011,59.9586367257,duckFrog,001,3,
frog,quackL.wav,-20,landoltCL.png,V1,frogFront.png,duckFront.png,LinCong,b,20,landoltCBottom.png,,,,,3,3,243,22,,,b,0,0.734117011409,,,2020_Feb_26_1011,59.9586367257,duckFrog,001,3,
duck,wnR.wav,-20,landoltCL.png,V1,duckFront.png,frogFront.png,HcongWN,b,20,landoltCBottom.png,,,,,3,4,244,61,,,b,0,0.717487709291,,,2020_Feb_26_1011,59.9586367257,duckFrog,001,3,
duck,quackR.wav,-20,landoltCR.png,V1,duckFront.png,frogFront.png,Hcong,b,20,landoltCBottom.png,,,,,3,5,245,44,,,b,0,0.767521506001,,,2020_Feb_26_1011,59.9586367257,duckFrog,001,3,
frog,ribbitL.wav,20,landoltCBottom.png,V1,duckFront.png,frogFront.png,Lcong,b,-20,landoltCL.png,,,,,3,6,246,16,,,b,0,0.633807855804,,,2020_Feb_26_1011,59.9586367257,duckFrog,001,3,
duck,ribbitL.wav,-20,landoltCR.png,V1,duckFront.png,frogFront.png,HinCong,b,20,landoltCBottom.png,,,,,3,7,247,78,,,b,0,0.583926180945,,,2020_Feb_26_1011,59.9586367257,duckFrog,001,3,
duck,ribbitR.wav,20,landoltCTop.png,V1,frogFront.png,duckFront.png,HinCong,h,-20,landoltCL.png,,,,,3,8,248,50,,,h,0,0.667316086503,,,2020_Feb_26_1011,59.9586367257,duckFrog,001,3,
duck,wnL.wav,20,landoltCBottom.png,V1,frogFront.png,duckFront.png,HcongWN,b,-20,landoltCL.png,,,,,3,9,249,73,,,b,0,0.567324004165,,,2020_Feb_26_1011,59.9586367257,duckFrog,001,3,
frog,quackR.wav,20,landoltCTop.png,V1,duckFront.png,frogFront.png,LinCong,h,-20,landoltCR.png,,,,,3,10,250,26,,,h,0,1.23453965358,,,2020_Feb_26_1011,59.9586367257,duckFrog,001,3,
duck,wnR.wav,20,landoltCTop.png,V1,frogFront.png,duckFront.png,HinCongWN,h,-20,landoltCR.png,,,,,3,11,251,35,,,h,0,0.967878827418,,,2020_Feb_26_1011,59.9586367257,duckFrog,001,3,
duck,wnL.wav,20,landoltCTop.png,V1,frogFront.png,duckFront.png,HcongWN,h,-20,landoltCR.png,,,,,3,12,252,33,,,h,0,1.13451091538,,,2020_Feb_26_1011,59.9586367257,duckFrog,001,3,
duck,wnR.wav,-20,landoltCL.png,V1,duckFront.png,frogFront.png,HcongWN,h,20,landoltCTop.png,,,,,3,13,253,53,,,h,0,1.40099322746,,,2020_Feb_26_1011,59.9586367257,duckFrog,001,3,
frog,ribbitR.wav,-20,landoltCL.png,V1,frogFront.png,duckFront.png,Lcong,h,20,landoltCTop.png,,,,,3,14,254,28,,,h,0,0.751064486481,,,2020_Feb_26_1011,59.9586367257,duckFrog,001,3,
duck,wnR.wav,20,landoltCBottom.png,V1,frogFront.png,duckFront.png,HinCongWN,b,-20,landoltCL.png,,,,,3,15,255,43,,,b,0,0.616850117076,,,2020_Feb_26_1011,59.9586367257,duckFrog,001,3,
duck,ribbitR.wav,20,landoltCBottom.png,V1,frogFront.png,duckFront.png,HinCong,b,-20,landoltCR.png,,,,,3,16,256,42,,,b,0,1.4515904249,,,2020_Feb_26_1011,59.9586367257,duckFrog,001,3,
duck,wnR.wav,-20,landoltCL.png,V1,duckFront.png,frogFront.png,HcongWN,h,20,landoltCTop.png,,,,,3,17,257,5,,,h,0,0.667158099706,,,2020_Feb_26_1011,59.9586367257,duckFrog,001,3,
frog,wnR.wav,-20,landoltCR.png,V1,frogFront.png,duckFront.png,LcongWN,b,20,landoltCBottom.png,,,,,3,18,258,21,,,b,0,1.0009966731,,,2020_Feb_26_1011,59.9586367257,duckFrog,001,3,
duck,ribbitL.wav,-20,landoltCR.png,V1,duckFront.png,frogFront.png,HinCong,b,20,landoltCBottom.png,,,,,3,19,259,62,,,b,0,1.21642762152,,,2020_Feb_26_1011,59.9586367257,duckFrog,001,3,
duck,ribbitL.wav,-20,landoltCR.png,V1,duckFront.png,frogFront.png,HinCong,b,20,landoltCBottom.png,,,,,3,20,260,14,,,b,0,0.917664317269,,,2020_Feb_26_1011,59.9586367257,duckFrog,001,3,
duck,quackL.wav,20,landoltCTop.png,V1,frogFront.png,duckFront.png,Hcong,h,-20,landoltCL.png,,,,,3,21,261,32,,,h,0,0.733869217715,,,2020_Feb_26_1011,59.9586367257,duckFrog,001,3,
duck,ribbitR.wav,20,landoltCBottom.png,V1,frogFront.png,duckFront.png,HinCong,b,-20,landoltCR.png,,,,,3,22,262,58,,,b,0,1.48468920954,,,2020_Feb_26_1011,59.9586367257,duckFrog,001,3,
frog,wnL.wav,20,landoltCTop.png,V1,duckFront.png,frogFront.png,LcongWN,h,-20,landoltCL.png,,,,,3,23,263,25,,,h,0,0.901127021381,,,2020_Feb_26_1011,59.9586367257,duckFrog,001,3,
duck,quackR.wav,-20,landoltCR.png,V1,duckFront.png,frogFront.png,Hcong,h,20,landoltCTop.png,,,,,3,24,264,4,,,h,0,0.817057515989,,,2020_Feb_26_1011,59.9586367257,duckFrog,001,3,
frog,wnL.wav,-20,landoltCR.png,V1,frogFront.png,duckFront.png,LinCongWN,h,20,landoltCTop.png,,,,,3,25,265,31,,,h,0,0.717419529363,,,2020_Feb_26_1011,59.9586367257,duckFrog,001,3,
duck,wnL.wav,20,landoltCBottom.png,V1,frogFront.png,duckFront.png,HcongWN,b,-20,landoltCL.png,,,,,3,26,266,9,,,b,0,0.700271180132,,,2020_Feb_26_1011,59.9586367257,duckFrog,001,3,
duck,wnL.wav,-20,landoltCL.png,V1,duckFront.png,frogFront.png,HinCongWN,h,20,landoltCTop.png,,,,,3,27,267,55,,,h,0,0.683814160599,,,2020_Feb_26_1011,59.9586367257,duckFrog,001,3,
duck,quackR.wav,-20,landoltCR.png,V1,duckFront.png,frogFront.png,Hcong,b,20,landoltCBottom.png,,,,,3,28,268,76,,,b,0,1.06776204183,,,2020_Feb_26_1011,59.9586367257,duckFrog,001,3,
duck,wnL.wav,20,landoltCBottom.png,V1,frogFront.png,duckFront.png,HcongWN,b,-20,landoltCL.png,,,,,3,29,269,57,,,b,0,0.617122470183,,,2020_Feb_26_1011,59.9586367257,duckFrog,001,3,
frog,wnR.wav,20,landoltCTop.png,V1,duckFront.png,frogFront.png,LinCongWN,h,-20,landoltCL.png,,,,,3,30,270,27,,,h,0,1.13444126923,,,2020_Feb_26_1011,59.9586367257,duckFrog,001,3,
frog,ribbitL.wav,20,landoltCTop.png,V1,duckFront.png,frogFront.png,Lcong,h,-20,landoltCR.png,,,,,3,31,271,24,,,h,0,1.10093340508,,,2020_Feb_26_1011,59.9586367257,duckFrog,001,3,
duck,wnR.wav,20,landoltCBottom.png,V1,frogFront.png,duckFront.png,HinCongWN,b,-20,landoltCL.png,,,,,3,32,272,59,,,b,0,1.05106126076,,,2020_Feb_26_1011,59.9586367257,duckFrog,001,3,
duck,wnL.wav,-20,landoltCL.png,V1,duckFront.png,frogFront.png,HinCongWN,b,20,landoltCBottom.png,,,,,3,33,273,63,,,b,0,1.13400066567,,,2020_Feb_26_1011,59.9586367257,duckFrog,001,3,
duck,wnL.wav,20,landoltCTop.png,V1,frogFront.png,duckFront.png,HcongWN,h,-20,landoltCR.png,,,,,3,34,274,65,,,h,0,0.700536935183,,,2020_Feb_26_1011,59.9586367257,duckFrog,001,3,
duck,wnR.wav,-20,landoltCL.png,V1,duckFront.png,frogFront.png,HcongWN,b,20,landoltCBottom.png,,,,,3,35,275,45,,,b,0,0.683653241329,,,2020_Feb_26_1011,59.9586367257,duckFrog,001,3,
frog,wnR.wav,-20,landoltCR.png,V1,frogFront.png,duckFront.png,LcongWN,h,20,landoltCTop.png,,,,,3,36,276,29,,,h,0,0.650759729571,,,2020_Feb_26_1011,59.9586367257,duckFrog,001,3,
duck,wnL.wav,-20,landoltCL.png,V1,duckFront.png,frogFront.png,HinCongWN,b,20,landoltCBottom.png,,,,,3,37,277,47,,,b,0,1.13443687052,,,2020_Feb_26_1011,59.9586367257,duckFrog,001,3,
duck,quackL.wav,20,landoltCTop.png,V1,frogFront.png,duckFront.png,Hcong,h,-20,landoltCL.png,,,,,3,38,278,64,,,h,0,1.15088142705,,,2020_Feb_26_1011,59.9586367257,duckFrog,001,3,
duck,quackL.wav,20,landoltCTop.png,V1,frogFront.png,duckFront.png,Hcong,h,-20,landoltCL.png,,,,,3,39,279,0,,,h,0,1.08432243089,,,2020_Feb_26_1011,59.9586367257,duckFrog,001,3,
duck,quackL.wav,20,landoltCBottom.png,V1,frogFront.png,duckFront.png,Hcong,b,-20,landoltCR.png,,,,,3,40,280,8,,,b,0,0.667383533291,,,2020_Feb_26_1011,59.9586367257,duckFrog,001,3,
duck,quackL.wav,20,landoltCBottom.png,V1,frogFront.png,duckFront.png,Hcong,b,-20,landoltCR.png,,,,,3,41,281,40,,,b,0,1.08460871325,,,2020_Feb_26_1011,59.9586367257,duckFrog,001,3,
duck,wnR.wav,-20,landoltCL.png,V1,duckFront.png,frogFront.png,HcongWN,b,20,landoltCBottom.png,,,,,3,42,282,77,,,b,0,1.18445197275,,,2020_Feb_26_1011,59.9586367257,duckFrog,001,3,
duck,wnL.wav,-20,landoltCL.png,V1,duckFront.png,frogFront.png,HinCongWN,b,20,landoltCBottom.png,,,,,3,43,283,15,,,b,0,0.984338046313,,,2020_Feb_26_1011,59.9586367257,duckFrog,001,3,
duck,ribbitL.wav,-20,landoltCR.png,V1,duckFront.png,frogFront.png,HinCong,h,20,landoltCTop.png,,,,,3,44,284,6,,,h,0,0.634229398303,,,2020_Feb_26_1011,59.9586367257,duckFrog,001,3,
duck,quackR.wav,-20,landoltCR.png,V1,duckFront.png,frogFront.png,Hcong,b,20,landoltCBottom.png,,,,,3,45,285,12,,,b,0,1.06769862716,,,2020_Feb_26_1011,59.9586367257,duckFrog,001,3,
duck,wnR.wav,20,landoltCTop.png,V1,frogFront.png,duckFront.png,HinCongWN,h,-20,landoltCR.png,,,,,3,46,286,51,,,h,0,1.30096522237,,,2020_Feb_26_1011,59.9586367257,duckFrog,001,3,
frog,ribbitR.wav,-20,landoltCL.png,V1,frogFront.png,duckFront.png,Lcong,b,20,landoltCBottom.png,,,,,3,47,287,20,,,b,0,1.05097805192,,,2020_Feb_26_1011,59.9586367257,duckFrog,001,3,
duck,quackR.wav,-20,landoltCR.png,V1,duckFront.png,frogFront.png,Hcong,h,20,landoltCTop.png,,,,,3,48,288,52,,,h,0,1.13442110851,,,2020_Feb_26_1011,59.9586367257,duckFrog,001,3,
duck,wnR.wav,20,landoltCBottom.png,V1,frogFront.png,duckFront.png,HinCongWN,b,-20,landoltCL.png,,,,,3,49,289,11,,,b,0,1.16757487695,,,2020_Feb_26_1011,59.9586367257,duckFrog,001,3,
duck,wnR.wav,20,landoltCTop.png,V1,frogFront.png,duckFront.png,HinCongWN,h,-20,landoltCR.png,,,,,3,50,290,67,,,h,0,1.00100143837,,,2020_Feb_26_1011,59.9586367257,duckFrog,001,3,
duck,ribbitR.wav,20,landoltCBottom.png,V1,frogFront.png,duckFront.png,HinCong,b,-20,landoltCR.png,,,,,3,51,291,74,,,b,0,0.684071484822,,,2020_Feb_26_1011,59.9586367257,duckFrog,001,3,
duck,ribbitR.wav,20,landoltCTop.png,V1,frogFront.png,duckFront.png,HinCong,h,-20,landoltCL.png,,,,,3,52,292,2,,,h,0,1.00095195294,,,2020_Feb_26_1011,59.9586367257,duckFrog,001,3,
duck,ribbitL.wav,-20,landoltCR.png,V1,duckFront.png,frogFront.png,HinCong,h,20,landoltCTop.png,,,,,3,53,293,38,,,h,0,1.13440827896,,,2020_Feb_26_1011,59.9586367257,duckFrog,001,3,
duck,ribbitL.wav,-20,landoltCR.png,V1,duckFront.png,frogFront.png,HinCong,h,20,landoltCTop.png,,,,,3,54,294,70,,,h,0,0.684056455895,,,2020_Feb_26_1011,59.9586367257,duckFrog,001,3,
frog,quackR.wav,20,landoltCBottom.png,V1,duckFront.png,frogFront.png,LinCong,b,-20,landoltCL.png,,,,,3,55,295,18,,,b,0,1.10080877513,,,2020_Feb_26_1011,59.9586367257,duckFrog,001,3,
duck,wnL.wav,-20,landoltCL.png,V1,duckFront.png,frogFront.png,HinCongWN,h,20,landoltCTop.png,,,,,3,56,296,39,,,h,0,1.10075672378,,,2020_Feb_26_1011,59.9586367257,duckFrog,001,3,
duck,wnR.wav,20,landoltCTop.png,V1,frogFront.png,duckFront.png,HinCongWN,h,-20,landoltCR.png,,,,,3,57,297,3,,,h,0,1.11749892599,,,2020_Feb_26_1011,59.9586367257,duckFrog,001,3,
duck,wnL.wav,-20,landoltCL.png,V1,duckFront.png,frogFront.png,HinCongWN,b,20,landoltCBottom.png,,,,,3,58,298,79,,,b,0,0.750527111406,,,2020_Feb_26_1011,59.9586367257,duckFrog,001,3,
frog,wnL.wav,-20,landoltCR.png,V1,frogFront.png,duckFront.png,LinCongWN,b,20,landoltCBottom.png,,,,,3,59,299,23,,,b,0,1.1344354043,,,2020_Feb_26_1011,59.9586367257,duckFrog,001,3,
frog,wnL.wav,20,landoltCBottom.png,V1,duckFront.png,frogFront.png,LcongWN,b,-20,landoltCR.png,,,,,3,60,300,17,,,b,0,1.13423599636,,,2020_Feb_26_1011,59.9586367257,duckFrog,001,3,
duck,wnR.wav,-20,landoltCL.png,V1,duckFront.png,frogFront.png,HcongWN,b,20,landoltCBottom.png,,,,,3,61,301,13,,,b,0,1.20105524918,,,2020_Feb_26_1011,59.9586367257,duckFrog,001,3,
duck,ribbitR.wav,20,landoltCTop.png,V1,frogFront.png,duckFront.png,HinCong,h,-20,landoltCL.png,,,,,3,62,302,66,,,h,0,0.750736782997,,,2020_Feb_26_1011,59.9586367257,duckFrog,001,3,
duck,wnR.wav,-20,landoltCL.png,V1,duckFront.png,frogFront.png,HcongWN,h,20,landoltCTop.png,,,,,3,63,303,37,,,h,0,0.683569299392,,,2020_Feb_26_1011,59.9586367257,duckFrog,001,3,
duck,ribbitR.wav,20,landoltCTop.png,V1,frogFront.png,duckFront.png,HinCong,h,-20,landoltCL.png,,,,,3,64,304,34,,,h,0,0.934194281974,,,2020_Feb_26_1011,59.9586367257,duckFrog,001,3,
duck,wnR.wav,-20,landoltCL.png,V1,duckFront.png,frogFront.png,HcongWN,h,20,landoltCTop.png,,,,,3,65,305,69,,,h,0,0.867135666311,,,2020_Feb_26_1011,59.9586367257,duckFrog,001,3,
duck,wnR.wav,20,landoltCBottom.png,V1,frogFront.png,duckFront.png,HinCongWN,b,-20,landoltCL.png,,,,,3,66,306,75,,,b,0,1.08396503617,,,2020_Feb_26_1011,59.9586367257,duckFrog,001,3,
duck,quackR.wav,-20,landoltCR.png,V1,duckFront.png,frogFront.png,Hcong,h,20,landoltCTop.png,,,,,3,67,307,36,,,h,0,0.633604415721,,,2020_Feb_26_1011,59.9586367257,duckFrog,001,3,
duck,quackL.wav,20,landoltCBottom.png,V1,frogFront.png,duckFront.png,Hcong,b,-20,landoltCR.png,,,,,3,68,308,56,,,b,0,0.633828016522,,,2020_Feb_26_1011,59.9586367257,duckFrog,001,3,
frog,wnR.wav,20,landoltCBottom.png,V1,duckFront.png,frogFront.png,LinCongWN,b,-20,landoltCR.png,,,,,3,69,309,19,,,b,0,1.21808483341,,,2020_Feb_26_1011,59.9586367257,duckFrog,001,3,
duck,wnL.wav,-20,landoltCL.png,V1,duckFront.png,frogFront.png,HinCongWN,h,20,landoltCTop.png,,,,,3,70,310,7,,,h,0,0.650214290217,,,2020_Feb_26_1011,59.9586367257,duckFrog,001,3,
duck,wnL.wav,-20,landoltCL.png,V1,duckFront.png,frogFront.png,HinCongWN,h,20,landoltCTop.png,,,,,3,71,311,71,,,h,0,1.06769716092,,,2020_Feb_26_1011,59.9586367257,duckFrog,001,3,
duck,ribbitL.wav,-20,landoltCR.png,V1,duckFront.png,frogFront.png,HinCong,b,20,landoltCBottom.png,,,,,3,72,312,46,,,b,0,1.03456208698,,,2020_Feb_26_1011,59.9586367257,duckFrog,001,3,
duck,wnL.wav,20,landoltCBottom.png,V1,frogFront.png,duckFront.png,HcongWN,b,-20,landoltCL.png,,,,,3,73,313,41,,,b,0,0.567074744249,,,2020_Feb_26_1011,59.9586367257,duckFrog,001,3,
frog,quackL.wav,-20,landoltCL.png,V1,frogFront.png,duckFront.png,LinCong,h,20,landoltCTop.png,,,,,3,74,314,30,,,h,0,0.550156227313,,,2020_Feb_26_1011,59.9586367257,duckFrog,001,3,
duck,quackL.wav,20,landoltCTop.png,V1,frogFront.png,duckFront.png,Hcong,h,-20,landoltCL.png,,,,,3,75,315,48,,,h,0,0.567025625394,,,2020_Feb_26_1011,59.9586367257,duckFrog,001,3,
duck,ribbitR.wav,20,landoltCBottom.png,V1,frogFront.png,duckFront.png,HinCong,b,-20,landoltCR.png,,,,,3,76,316,10,,,b,0,2.50218102429,,,2020_Feb_26_1011,59.9586367257,duckFrog,001,3,
duck,quackL.wav,20,landoltCBottom.png,V1,frogFront.png,duckFront.png,Hcong,b,-20,landoltCR.png,,,,,3,77,317,72,,,b,0,0.650665157416,,,2020_Feb_26_1011,59.9586367257,duckFrog,001,3,
duck,wnL.wav,20,landoltCTop.png,V1,frogFront.png,duckFront.png,HcongWN,h,-20,landoltCR.png,,,,,3,78,318,1,,,h,0,1.13461281871,,,2020_Feb_26_1011,59.9586367257,duckFrog,001,3,
duck,ribbitL.wav,-20,landoltCR.png,V1,duckFront.png,frogFront.png,HinCong,h,20,landoltCTop.png,,,,,3,79,319,54,,,h,0,1.1009546655,,,2020_Feb_26_1011,59.9586367257,duckFrog,001,3,
duck,wnL.wav,-20,landoltCL.png,V1,duckFront.png,frogFront.png,HinCongWN,h,20,landoltCTop.png,,,,,4,0,320,39,,,h,0,1.13442074195,,,2020_Feb_26_1011,59.9586367257,duckFrog,001,3,
duck,wnR.wav,20,landoltCTop.png,V1,frogFront.png,duckFront.png,HinCongWN,h,-20,landoltCR.png,,,,,4,1,321,3,,,h,0,0.683858880759,,,2020_Feb_26_1011,59.9586367257,duckFrog,001,3,
duck,wnR.wav,20,landoltCTop.png,V1,frogFront.png,duckFront.png,HinCongWN,h,-20,landoltCR.png,,,,,4,2,322,67,,,h,0,1.00102233223,,,2020_Feb_26_1011,59.9586367257,duckFrog,001,3,
duck,ribbitR.wav,20,landoltCTop.png,V1,frogFront.png,duckFront.png,HinCong,h,-20,landoltCL.png,,,,,4,3,323,50,,,h,0,0.684055356236,,,2020_Feb_26_1011,59.9586367257,duckFrog,001,3,
duck,wnR.wav,-20,landoltCL.png,V1,duckFront.png,frogFront.png,HcongWN,h,20,landoltCTop.png,,,,,4,4,324,5,,,h,0,0.583698547998,,,2020_Feb_26_1011,59.9586367257,duckFrog,001,3,
duck,quackR.wav,-20,landoltCR.png,V1,duckFront.png,frogFront.png,Hcong,b,20,landoltCBottom.png,,,,,4,5,325,76,,,b,0,1.05105942796,,,2020_Feb_26_1011,59.9586367257,duckFrog,001,3,
duck,quackL.wav,20,landoltCTop.png,V1,frogFront.png,duckFront.png,Hcong,h,-20,landoltCL.png,,,,,4,6,326,64,,,h,0,0.600169863304,,,2020_Feb_26_1011,59.9586367257,duckFrog,001,3,
duck,wnL.wav,-20,landoltCL.png,V1,duckFront.png,frogFront.png,HinCongWN,b,20,landoltCBottom.png,,,,,4,7,327,15,,,b,0,0.583765628238,,,2020_Feb_26_1011,59.9586367257,duckFrog,001,3,
duck,wnR.wav,20,landoltCTop.png,V1,frogFront.png,duckFront.png,HinCongWN,h,-20,landoltCR.png,,,,,4,8,328,51,,,h,0,1.0510077432,,,2020_Feb_26_1011,59.9586367257,duckFrog,001,3,
frog,ribbitL.wav,20,landoltCTop.png,V1,duckFront.png,frogFront.png,Lcong,h,-20,landoltCR.png,,,,,4,9,329,24,,,h,0,0.984086953598,,,2020_Feb_26_1011,59.9586367257,duckFrog,001,3,
duck,quackR.wav,-20,landoltCR.png,V1,duckFront.png,frogFront.png,Hcong,h,20,landoltCTop.png,,,,,4,10,330,68,,,h,0,1.06739694935,,,2020_Feb_26_1011,59.9586367257,duckFrog,001,3,
duck,ribbitL.wav,-20,landoltCR.png,V1,duckFront.png,frogFront.png,HinCong,b,20,landoltCBottom.png,,,,,4,11,331,14,,,b,0,0.967907785554,,,2020_Feb_26_1011,59.9586367257,duckFrog,001,3,
duck,wnL.wav,20,landoltCTop.png,V1,frogFront.png,duckFront.png,HcongWN,h,-20,landoltCR.png,,,,,4,12,332,65,,,h,0,0.70067512781,,,2020_Feb_26_1011,59.9586367257,duckFrog,001,3,
duck,quackR.wav,-20,landoltCR.png,V1,duckFront.png,frogFront.png,Hcong,h,20,landoltCTop.png,,,,,4,13,333,4,,,h,0,0.717331921842,,,2020_Feb_26_1011,59.9586367257,duckFrog,001,3,
frog,wnL.wav,-20,landoltCR.png,V1,frogFront.png,duckFront.png,LinCongWN,b,20,landoltCBottom.png,,,,,4,14,334,23,,,b,0,1.01770331911,,,2020_Feb_26_1011,59.9586367257,duckFrog,001,3,
frog,wnL.wav,20,landoltCTop.png,V1,duckFront.png,frogFront.png,LcongWN,h,-20,landoltCL.png,,,,,4,15,335,25,,,h,0,0.650520366748,,,2020_Feb_26_1011,59.9586367257,duckFrog,001,3,
duck,wnL.wav,20,landoltCBottom.png,V1,frogFront.png,duckFront.png,HcongWN,b,-20,landoltCL.png,,,,,4,16,336,41,,,b,0,0.850524325564,,,2020_Feb_26_1011,59.9586367257,duckFrog,001,3,
duck,quackR.wav,-20,landoltCR.png,V1,duckFront.png,frogFront.png,Hcong,h,20,landoltCTop.png,,,,,4,17,337,36,,,h,0,0.650270740254,,,2020_Feb_26_1011,59.9586367257,duckFrog,001,3,
duck,quackR.wav,-20,landoltCR.png,V1,duckFront.png,frogFront.png,Hcong,b,20,landoltCBottom.png,,,,,4,18,338,12,,,b,0,0.600650421766,,,2020_Feb_26_1011,59.9586367257,duckFrog,001,3,
duck,ribbitL.wav,-20,landoltCR.png,V1,duckFront.png,frogFront.png,HinCong,h,20,landoltCTop.png,,,,,4,19,339,70,,,h,0,1.06795558482,,,2020_Feb_26_1011,59.9586367257,duckFrog,001,3,
duck,quackR.wav,-20,landoltCR.png,V1,duckFront.png,frogFront.png,Hcong,h,20,landoltCTop.png,,,,,4,20,340,52,,,h,0,1.06773601615,,,2020_Feb_26_1011,59.9586367257,duckFrog,001,3,
duck,quackL.wav,20,landoltCBottom.png,V1,frogFront.png,duckFront.png,Hcong,b,-20,landoltCR.png,,,,,4,21,341,8,,,b,0,0.58372933892,,,2020_Feb_26_1011,59.9586367257,duckFrog,001,3,
duck,ribbitR.wav,20,landoltCBottom.png,V1,frogFront.png,duckFront.png,HinCong,b,-20,landoltCR.png,,,,,4,22,342,74,,,b,0,1.1344423689,,,2020_Feb_26_1011,59.9586367257,duckFrog,001,3,
frog,quackR.wav,20,landoltCTop.png,V1,duckFront.png,frogFront.png,LinCong,h,-20,landoltCR.png,,,,,4,23,343,26,,,h,0,0.684075516969,,,2020_Feb_26_1011,59.9586367257,duckFrog,001,3,
frog,wnL.wav,20,landoltCBottom.png,V1,duckFront.png,frogFront.png,LcongWN,b,-20,landoltCR.png,,,,,4,24,344,17,,,b,0,0.967648995109,,,2020_Feb_26_1011,59.9586367257,duckFrog,001,3,
duck,wnL.wav,-20,landoltCL.png,V1,duckFront.png,frogFront.png,HinCongWN,b,20,landoltCBottom.png,,,,,4,25,345,63,,,b,0,1.13395594551,,,2020_Feb_26_1011,59.9586367257,duckFrog,001,3,
duck,wnR.wav,-20,landoltCL.png,V1,duckFront.png,frogFront.png,HcongWN,h,20,landoltCTop.png,,,,,4,26,346,37,,,h,0,1.18453628125,,,2020_Feb_26_1011,59.9586367257,duckFrog,001,3,
duck,ribbitL.wav,-20,landoltCR.png,V1,duckFront.png,frogFront.png,HinCong,b,20,landoltCBottom.png,,,,,4,27,347,46,,,b,0,0.634323237333,,,2020_Feb_26_1011,59.9586367257,duckFrog,001,3,
frog,wnR.wav,20,landoltCTop.png,V1,duckFront.png,frogFront.png,LinCongWN,h,-20,landoltCL.png,,,,,4,28,348,27,,,h,0,0.633966575711,,,2020_Feb_26_1011,59.9586367257,duckFrog,001,3,
duck,wnR.wav,20,landoltCBottom.png,V1,frogFront.png,duckFront.png,HinCongWN,b,-20,landoltCL.png,,,,,4,29,349,59,,,b,0,0.580853319334,,,2020_Feb_26_1011,59.9586367257,duckFrog,001,3,
frog,wnR.wav,-20,landoltCR.png,V1,frogFront.png,duckFront.png,LcongWN,b,20,landoltCBottom.png,,,,,4,30,350,21,,,b,0,1.13418834373,,,2020_Feb_26_1011,59.9586367257,duckFrog,001,3,
duck,wnL.wav,-20,landoltCL.png,V1,duckFront.png,frogFront.png,HinCongWN,b,20,landoltCBottom.png,,,,,4,31,351,47,,,b,0,0.583894290336,,,2020_Feb_26_1011,59.9586367257,duckFrog,001,3,
duck,quackL.wav,20,landoltCBottom.png,V1,frogFront.png,duckFront.png,Hcong,b,-20,landoltCR.png,,,,,4,32,352,56,,,b,0,1.2177981845,,,2020_Feb_26_1011,59.9586367257,duckFrog,001,3,
duck,wnL.wav,20,landoltCBottom.png,V1,frogFront.png,duckFront.png,HcongWN,b,-20,landoltCL.png,,,,,4,33,353,73,,,b,0,1.13443503773,,,2020_Feb_26_1011,59.9586367257,duckFrog,001,3,
frog,wnL.wav,-20,landoltCR.png,V1,frogFront.png,duckFront.png,LinCongWN,h,20,landoltCTop.png,,,,,4,34,354,31,,,h,0,1.13400616405,,,2020_Feb_26_1011,59.9586367257,duckFrog,001,3,
duck,ribbitR.wav,20,landoltCTop.png,V1,frogFront.png,duckFront.png,HinCong,h,-20,landoltCL.png,,,,,4,35,355,34,,,h,0,1.20062014401,,,2020_Feb_26_1011,59.9586367257,duckFrog,001,3,
duck,quackL.wav,20,landoltCTop.png,V1,frogFront.png,duckFront.png,Hcong,h,-20,landoltCL.png,,,,,4,36,356,32,,,h,0,1.15132606275,,,2020_Feb_26_1011,59.9586367257,duckFrog,001,3,
duck,wnL.wav,-20,landoltCL.png,V1,duckFront.png,frogFront.png,HinCongWN,h,20,landoltCTop.png,,,,,4,37,357,7,,,h,0,1.05077424529,,,2020_Feb_26_1011,59.9586367257,duckFrog,001,3,
duck,wnR.wav,-20,landoltCL.png,V1,duckFront.png,frogFront.png,HcongWN,b,20,landoltCBottom.png,,,,,4,38,358,45,,,b,0,1.10107233083,,,2020_Feb_26_1011,59.9586367257,duckFrog,001,3,
duck,wnR.wav,-20,landoltCL.png,V1,duckFront.png,frogFront.png,HcongWN,b,20,landoltCBottom.png,,,,,4,39,359,61,,,b,0,0.917740561476,,,2020_Feb_26_1011,59.9586367257,duckFrog,001,3,
duck,ribbitR.wav,20,landoltCBottom.png,V1,frogFront.png,duckFront.png,HinCong,b,-20,landoltCR.png,,,,,4,40,360,10,,,b,0,1.00075071222,,,2020_Feb_26_1011,59.9586367257,duckFrog,001,3,
frog,wnR.wav,20,landoltCBottom.png,V1,duckFront.png,frogFront.png,LinCongWN,b,-20,landoltCR.png,,,,,4,41,361,19,,,b,0,0.884236729471,,,2020_Feb_26_1011,59.9586367257,duckFrog,001,3,
duck,wnL.wav,20,landoltCTop.png,V1,frogFront.png,duckFront.png,HcongWN,h,-20,landoltCR.png,,,,,4,42,362,49,,,h,0,0.650754597737,,,2020_Feb_26_1011,59.9586367257,duckFrog,001,3,
duck,wnR.wav,-20,landoltCL.png,V1,duckFront.png,frogFront.png,HcongWN,b,20,landoltCBottom.png,,,,,4,43,363,13,,,b,0,0.717171735683,,,2020_Feb_26_1011,59.9586367257,duckFrog,001,3,
duck,ribbitL.wav,-20,landoltCR.png,V1,duckFront.png,frogFront.png,HinCong,h,20,landoltCTop.png,,,,,4,44,364,6,,,h,0,0.650718308447,,,2020_Feb_26_1011,59.9586367257,duckFrog,001,3,
duck,ribbitL.wav,-20,landoltCR.png,V1,duckFront.png,frogFront.png,HinCong,b,20,landoltCBottom.png,,,,,4,45,365,78,,,b,0,1.00125253109,,,2020_Feb_26_1011,59.9586367257,duckFrog,001,3,
duck,wnR.wav,-20,landoltCL.png,V1,duckFront.png,frogFront.png,HcongWN,h,20,landoltCTop.png,,,,,4,46,366,69,,,h,0,0.784202492883,,,2020_Feb_26_1011,59.9586367257,duckFrog,001,3,
duck,quackR.wav,-20,landoltCR.png,V1,duckFront.png,frogFront.png,Hcong,b,20,landoltCBottom.png,,,,,4,47,367,44,,,b,0,1.08447052063,,,2020_Feb_26_1011,59.9586367257,duckFrog,001,3,
duck,wnL.wav,-20,landoltCL.png,V1,duckFront.png,frogFront.png,HinCongWN,h,20,landoltCTop.png,,,,,4,48,368,55,,,h,0,1.13444786728,,,2020_Feb_26_1011,59.9586367257,duckFrog,001,3,
duck,wnL.wav,20,landoltCTop.png,V1,frogFront.png,duckFront.png,HcongWN,h,-20,landoltCR.png,,,,,4,49,369,1,,,h,0,1.1508073822,,,2020_Feb_26_1011,59.9586367257,duckFrog,001,3,
duck,wnR.wav,20,landoltCBottom.png,V1,frogFront.png,duckFront.png,HinCongWN,b,-20,landoltCL.png,,,,,4,50,370,43,,,b,0,1.30130428917,,,2020_Feb_26_1011,59.9586367257,duckFrog,001,3,
duck,wnL.wav,20,landoltCBottom.png,V1,frogFront.png,duckFront.png,HcongWN,b,-20,landoltCL.png,,,,,4,51,371,9,,,b,0,0.7343068888,,,2020_Feb_26_1011,59.9586367257,duckFrog,001,3,
duck,wnR.wav,20,landoltCBottom.png,V1,frogFront.png,duckFront.png,HinCongWN,b,-20,landoltCL.png,,,,,4,52,372,11,,,b,0,1.05105356303,,,2020_Feb_26_1011,59.9586367257,duckFrog,001,3,
frog,ribbitR.wav,-20,landoltCL.png,V1,frogFront.png,duckFront.png,Lcong,b,20,landoltCBottom.png,,,,,4,53,373,20,,,b,0,1.1840263981,,,2020_Feb_26_1011,59.9586367257,duckFrog,001,3,
duck,ribbitR.wav,20,landoltCTop.png,V1,frogFront.png,duckFront.png,HinCong,h,-20,landoltCL.png,,,,,4,54,374,66,,,h,0,1.06746769519,,,2020_Feb_26_1011,59.9586367257,duckFrog,001,3,
duck,wnR.wav,-20,landoltCL.png,V1,duckFront.png,frogFront.png,HcongWN,b,20,landoltCBottom.png,,,,,4,55,375,77,,,b,0,0.667155167233,,,2020_Feb_26_1011,59.9586367257,duckFrog,001,3,
frog,quackL.wav,-20,landoltCL.png,V1,frogFront.png,duckFront.png,LinCong,b,20,landoltCBottom.png,,,,,4,56,376,22,,,b,0,1.21782347705,,,2020_Feb_26_1011,59.9586367257,duckFrog,001,3,
duck,ribbitL.wav,-20,landoltCR.png,V1,duckFront.png,frogFront.png,HinCong,b,20,landoltCBottom.png,,,,,4,57,377,62,,,b,0,0.684083581247,,,2020_Feb_26_1011,59.9586367257,duckFrog,001,3,
duck,wnL.wav,-20,landoltCL.png,V1,duckFront.png,frogFront.png,HinCongWN,b,20,landoltCBottom.png,,,,,4,58,378,79,,,b,0,0.750808995057,,,2020_Feb_26_1011,59.9586367257,duckFrog,001,3,
duck,quackL.wav,20,landoltCTop.png,V1,frogFront.png,duckFront.png,Hcong,h,-20,landoltCL.png,,,,,4,59,379,48,,,h,0,0.734064593504,,,2020_Feb_26_1011,59.9586367257,duckFrog,001,3,
duck,wnL.wav,20,landoltCTop.png,V1,frogFront.png,duckFront.png,HcongWN,h,-20,landoltCR.png,,,,,4,60,380,33,,,h,0,1.13445703126,,,2020_Feb_26_1011,59.9586367257,duckFrog,001,3,
duck,ribbitR.wav,20,landoltCTop.png,V1,frogFront.png,duckFront.png,HinCong,h,-20,landoltCL.png,,,,,4,61,381,2,,,h,0,1.1381702709,,,2020_Feb_26_1011,59.9586367257,duckFrog,001,3,
duck,quackL.wav,20,landoltCTop.png,V1,frogFront.png,duckFront.png,Hcong,h,-20,landoltCL.png,,,,,4,62,382,0,,,h,0,0.617354501854,,,2020_Feb_26_1011,59.9586367257,duckFrog,001,3,
duck,ribbitL.wav,-20,landoltCR.png,V1,duckFront.png,frogFront.png,HinCong,h,20,landoltCTop.png,,,,,4,63,383,38,,,h,0,0.700499912753,,,2020_Feb_26_1011,59.9586367257,duckFrog,001,3,
duck,wnR.wav,20,landoltCTop.png,V1,frogFront.png,duckFront.png,HinCongWN,h,-20,landoltCR.png,,,,,4,64,384,35,,,h,0,0.667137938974,,,2020_Feb_26_1011,59.9586367257,duckFrog,001,3,
duck,quackL.wav,20,landoltCBottom.png,V1,frogFront.png,duckFront.png,Hcong,b,-20,landoltCR.png,,,,,4,65,385,72,,,b,0,0.650677253856,,,2020_Feb_26_1011,59.9586367257,duckFrog,001,3,
duck,ribbitL.wav,-20,landoltCR.png,V1,duckFront.png,frogFront.png,HinCong,h,20,landoltCTop.png,,,,,4,66,386,54,,,h,0,0.600359740711,,,2020_Feb_26_1011,59.9586367257,duckFrog,001,3,
frog,ribbitR.wav,-20,landoltCL.png,V1,frogFront.png,duckFront.png,Lcong,h,20,landoltCTop.png,,,,,4,67,387,28,,,h,0,0.950877468233,,,2020_Feb_26_1011,59.9586367257,duckFrog,001,3,
duck,ribbitR.wav,20,landoltCBottom.png,V1,frogFront.png,duckFront.png,HinCong,b,-20,landoltCR.png,,,,,4,68,388,42,,,b,0,1.13395008056,,,2020_Feb_26_1011,59.9586367257,duckFrog,001,3,
duck,wnR.wav,-20,landoltCL.png,V1,duckFront.png,frogFront.png,HcongWN,h,20,landoltCTop.png,,,,,4,69,389,53,,,h,0,0.65023701686,,,2020_Feb_26_1011,59.9586367257,duckFrog,001,3,
frog,ribbitL.wav,20,landoltCBottom.png,V1,duckFront.png,frogFront.png,Lcong,b,-20,landoltCL.png,,,,,4,70,390,16,,,b,0,0.600414357948,,,2020_Feb_26_1011,59.9586367257,duckFrog,001,3,
duck,ribbitR.wav,20,landoltCBottom.png,V1,frogFront.png,duckFront.png,HinCong,b,-20,landoltCR.png,,,,,4,71,391,58,,,h,0,0.834174341187,,,2020_Feb_26_1011,59.9586367257,duckFrog,001,3,
duck,quackR.wav,-20,landoltCR.png,V1,duckFront.png,frogFront.png,Hcong,b,20,landoltCBottom.png,,,,,4,72,392,60,,,b,0,0.917305822863,,,2020_Feb_26_1011,59.9586367257,duckFrog,001,3,
duck,wnL.wav,20,landoltCBottom.png,V1,frogFront.png,duckFront.png,HcongWN,b,-20,landoltCL.png,,,,,4,73,393,57,,,b,0,0.68384311875,,,2020_Feb_26_1011,59.9586367257,duckFrog,001,3,
duck,wnR.wav,20,landoltCBottom.png,V1,frogFront.png,duckFront.png,HinCongWN,b,-20,landoltCL.png,,,,,4,74,394,75,,,b,0,1.16768521111,,,2020_Feb_26_1011,59.9586367257,duckFrog,001,3,
duck,wnL.wav,-20,landoltCL.png,V1,duckFront.png,frogFront.png,HinCongWN,h,20,landoltCTop.png,,,,,4,75,395,71,,,h,0,0.734049931154,,,2020_Feb_26_1011,59.9586367257,duckFrog,001,3,
frog,wnR.wav,-20,landoltCR.png,V1,frogFront.png,duckFront.png,LcongWN,h,20,landoltCTop.png,,,,,4,76,396,29,,,h,0,1.36793806331,,,2020_Feb_26_1011,59.9586367257,duckFrog,001,3,
duck,quackL.wav,20,landoltCBottom.png,V1,frogFront.png,duckFront.png,Hcong,b,-20,landoltCR.png,,,,,4,77,397,40,,,b,0,0.750534442588,,,2020_Feb_26_1011,59.9586367257,duckFrog,001,3,
frog,quackR.wav,20,landoltCBottom.png,V1,duckFront.png,frogFront.png,LinCong,b,-20,landoltCL.png,,,,,4,78,398,18,,,b,0,1.30143185161,,,2020_Feb_26_1011,59.9586367257,duckFrog,001,3,
frog,quackL.wav,-20,landoltCL.png,V1,frogFront.png,duckFront.png,LinCong,h,20,landoltCTop.png,,,,,4,79,399,30,,,h,0,1.23422551277,,,2020_Feb_26_1011,59.9586367257,duckFrog,001,3,
duck,wnR.wav,-20,landoltCL.png,V1,duckFront.png,frogFront.png,HcongWN,b,20,landoltCBottom.png,,,,,5,0,400,45,,,b,0,0.734129840945,,,2020_Feb_26_1011,59.9586367257,duckFrog,001,3,
duck,wnR.wav,-20,landoltCL.png,V1,duckFront.png,frogFront.png,HcongWN,b,20,landoltCBottom.png,,,,,5,1,401,13,,,b,0,0.734062394156,,,2020_Feb_26_1011,59.9586367257,duckFrog,001,3,
frog,quackR.wav,20,landoltCBottom.png,V1,duckFront.png,frogFront.png,LinCong,b,-20,landoltCL.png,,,,,5,2,402,18,,,b,0,1.1508561345,,,2020_Feb_26_1011,59.9586367257,duckFrog,001,3,
duck,wnR.wav,20,landoltCBottom.png,V1,frogFront.png,duckFront.png,HinCongWN,b,-20,landoltCL.png,,,,,5,3,403,75,,,b,0,0.700766767492,,,2020_Feb_26_1011,59.9586367257,duckFrog,001,3,
duck,wnR.wav,20,landoltCTop.png,V1,frogFront.png,duckFront.png,HinCongWN,h,-20,landoltCR.png,,,,,5,4,404,67,,,h,0,0.767442695884,,,2020_Feb_26_1011,59.9586367257,duckFrog,001,3,
duck,wnR.wav,-20,landoltCL.png,V1,duckFront.png,frogFront.png,HcongWN,h,20,landoltCTop.png,,,,,5,5,405,5,,,h,0,0.750549104938,,,2020_Feb_26_1011,59.9586367257,duckFrog,001,3,
duck,wnL.wav,-20,landoltCL.png,V1,duckFront.png,frogFront.png,HinCongWN,h,20,landoltCTop.png,,,,,5,6,406,55,,,h,0,1.20112636159,,,2020_Feb_26_1011,59.9586367257,duckFrog,001,3,
duck,wnL.wav,20,landoltCTop.png,V1,frogFront.png,duckFront.png,HcongWN,h,-20,landoltCR.png,,,,,5,7,407,49,,,h,0,0.667162498401,,,2020_Feb_26_1011,59.9586367257,duckFrog,001,3,
duck,quackR.wav,-20,landoltCR.png,V1,duckFront.png,frogFront.png,Hcong,b,20,landoltCBottom.png,,,,,5,8,408,12,,,b,0,0.783918043337,,,2020_Feb_26_1011,59.9586367257,duckFrog,001,3,
duck,quackL.wav,20,landoltCTop.png,V1,frogFront.png,duckFront.png,Hcong,h,-20,landoltCL.png,,,,,5,9,409,64,,,h,0,1.70125685648,,,2020_Feb_26_1011,59.9586367257,duckFrog,001,3,
frog,wnR.wav,-20,landoltCR.png,V1,frogFront.png,duckFront.png,LcongWN,b,20,landoltCBottom.png,,,,,5,10,410,21,,,b,0,0.800413918085,,,2020_Feb_26_1011,59.9586367257,duckFrog,001,3,
duck,wnL.wav,20,landoltCBottom.png,V1,frogFront.png,duckFront.png,HcongWN,b,-20,landoltCL.png,,,,,5,11,411,9,,,b,0,0.950685024916,,,2020_Feb_26_1011,59.9586367257,duckFrog,001,3,
duck,wnL.wav,-20,landoltCL.png,V1,duckFront.png,frogFront.png,HinCongWN,b,20,landoltCBottom.png,,,,,5,12,412,47,,,b,0,0.600177927598,,,2020_Feb_26_1011,59.9586367257,duckFrog,001,3,
duck,ribbitR.wav,20,landoltCTop.png,V1,frogFront.png,duckFront.png,HinCong,h,-20,landoltCL.png,,,,,5,13,413,66,,,h,0,0.750726152794,,,2020_Feb_26_1011,59.9586367257,duckFrog,001,3,
duck,ribbitR.wav,20,landoltCBottom.png,V1,frogFront.png,duckFront.png,HinCong,b,-20,landoltCR.png,,,,,5,14,414,42,,,b,0,0.6840813819,,,2020_Feb_26_1011,59.9586367257,duckFrog,001,3,
duck,wnL.wav,20,landoltCTop.png,V1,frogFront.png,duckFront.png,HcongWN,h,-20,landoltCR.png,,,,,5,15,415,1,,,h,0,0.700766767506,,,2020_Feb_26_1011,59.9586367257,duckFrog,001,3,
duck,ribbitR.wav,20,landoltCTop.png,V1,frogFront.png,duckFront.png,HinCong,h,-20,landoltCL.png,,,,,5,16,416,34,,,h,0,0.634206671661,,,2020_Feb_26_1011,59.9586367257,duckFrog,001,3,
duck,ribbitL.wav,-20,landoltCR.png,V1,duckFront.png,frogFront.png,HinCong,b,20,landoltCBottom.png,,,,,5,17,417,62,,,b,0,0.967143144109,,,2020_Feb_26_1011,59.9586367257,duckFrog,001,3,
duck,wnR.wav,20,landoltCBottom.png,V1,frogFront.png,duckFront.png,HinCongWN,b,-20,landoltCL.png,,,,,5,18,418,43,,,b,0,0.750567799434,,,2020_Feb_26_1011,59.9586367257,duckFrog,001,3,
duck,wnR.wav,20,landoltCBottom.png,V1,frogFront.png,duckFront.png,HinCongWN,b,-20,landoltCL.png,,,,,5,19,419,11,,,b,0,0.600710537401,,,2020_Feb_26_1011,59.9586367257,duckFrog,001,3,
duck,wnL.wav,-20,landoltCL.png,V1,duckFront.png,frogFront.png,HinCongWN,b,20,landoltCBottom.png,,,,,5,20,420,79,,,b,0,0.683841285951,,,2020_Feb_26_1011,59.9586367257,duckFrog,001,3,
duck,wnL.wav,20,landoltCTop.png,V1,frogFront.png,duckFront.png,HcongWN,h,-20,landoltCR.png,,,,,5,21,421,33,,,h,0,0.683843118735,,,2020_Feb_26_1011,59.9586367257,duckFrog,001,3,
duck,quackL.wav,20,landoltCBottom.png,V1,frogFront.png,duckFront.png,Hcong,b,-20,landoltCR.png,,,,,5,22,422,40,,,b,0,1.18444317533,,,2020_Feb_26_1011,59.9586367257,duckFrog,001,3,
frog,wnL.wav,-20,landoltCR.png,V1,frogFront.png,duckFront.png,LinCongWN,h,20,landoltCTop.png,,,,,5,23,423,31,,,h,0,1.00060152283,,,2020_Feb_26_1011,59.9586367257,duckFrog,001,3,
duck,wnR.wav,-20,landoltCL.png,V1,duckFront.png,frogFront.png,HcongWN,b,20,landoltCBottom.png,,,,,5,24,424,61,,,b,0,0.667393796946,,,2020_Feb_26_1011,59.9586367257,duckFrog,001,3,
duck,wnL.wav,-20,landoltCL.png,V1,duckFront.png,frogFront.png,HinCongWN,h,20,landoltCTop.png,,,,,5,25,425,7,,,h,0,1.10106023439,,,2020_Feb_26_1011,59.9586367257,duckFrog,001,3,
duck,quackR.wav,-20,landoltCR.png,V1,duckFront.png,frogFront.png,Hcong,h,20,landoltCTop.png,,,,,5,26,426,52,,,h,0,1.23448796882,,,2020_Feb_26_1011,59.9586367257,duckFrog,001,3,
duck,wnR.wav,-20,landoltCL.png,V1,duckFront.png,frogFront.png,HcongWN,h,20,landoltCTop.png,,,,,5,27,427,37,,,h,0,1.16777171896,,,2020_Feb_26_1011,59.9586367257,duckFrog,001,3,
duck,ribbitL.wav,-20,landoltCR.png,V1,duckFront.png,frogFront.png,HinCong,h,20,landoltCTop.png,,,,,5,28,428,70,,,h,0,0.650874095882,,,2020_Feb_26_1011,59.9586367257,duckFrog,001,3,
duck,ribbitR.wav,20,landoltCBottom.png,V1,frogFront.png,duckFront.png,HinCong,b,-20,landoltCR.png,,,,,5,29,429,74,,,b,0,0.633674061872,,,2020_Feb_26_1011,59.9586367257,duckFrog,001,3,
frog,ribbitL.wav,20,landoltCTop.png,V1,duckFront.png,frogFront.png,Lcong,h,-20,landoltCR.png,,,,,5,30,430,24,,,h,0,1.13437565522,,,2020_Feb_26_1011,59.9586367257,duckFrog,001,3,
frog,quackL.wav,-20,landoltCL.png,V1,frogFront.png,duckFront.png,LinCong,b,20,landoltCBottom.png,,,,,5,31,431,22,,,b,0,1.15080225038,,,2020_Feb_26_1011,59.9586367257,duckFrog,001,3,
duck,quackL.wav,20,landoltCBottom.png,V1,frogFront.png,duckFront.png,Hcong,b,-20,landoltCR.png,,,,,5,32,432,56,,,b,0,1.13393395198,,,2020_Feb_26_1011,59.9586367257,duckFrog,001,3,
duck,quackR.wav,-20,landoltCR.png,V1,duckFront.png,frogFront.png,Hcong,h,20,landoltCTop.png,,,,,5,33,433,36,,,h,0,0.700302337616,,,2020_Feb_26_1011,59.9586367257,duckFrog,001,3,
duck,wnR.wav,20,landoltCTop.png,V1,frogFront.png,duckFront.png,HinCongWN,h,-20,landoltCR.png,,,,,5,34,434,3,,,h,0,1.1343305685,,,2020_Feb_26_1011,59.9586367257,duckFrog,001,3,
duck,quackL.wav,20,landoltCBottom.png,V1,frogFront.png,duckFront.png,Hcong,b,-20,landoltCR.png,,,,,5,35,435,72,,,b,0,1.00113816478,,,2020_Feb_26_1011,59.9586367257,duckFrog,001,3,
duck,wnL.wav,20,landoltCBottom.png,V1,frogFront.png,duckFront.png,HcongWN,b,-20,landoltCL.png,,,,,5,36,436,57,,,b,0,1.13446729491,,,2020_Feb_26_1011,59.9586367257,duckFrog,001,3,
duck,ribbitL.wav,-20,landoltCR.png,V1,duckFront.png,frogFront.png,HinCong,h,20,landoltCTop.png,,,,,5,37,437,54,,,h,0,1.08402148621,,,2020_Feb_26_1011,59.9586367257,duckFrog,001,3,
duck,wnL.wav,-20,landoltCL.png,V1,duckFront.png,frogFront.png,HinCongWN,h,20,landoltCTop.png,,,,,5,38,438,71,,,h,0,0.600703206204,,,2020_Feb_26_1011,59.9586367257,duckFrog,001,3,
duck,ribbitL.wav,-20,landoltCR.png,V1,duckFront.png,frogFront.png,HinCong,h,20,landoltCTop.png,,,,,5,39,439,6,,,h,0,0.767458091344,,,2020_Feb_26_1011,59.9586367257,duckFrog,001,3,
duck,quackR.wav,-20,landoltCR.png,V1,duckFront.png,frogFront.png,Hcong,h,20,landoltCTop.png,,,,,5,40,440,68,,,h,0,0.767470920895,,,2020_Feb_26_1011,59.9586367257,duckFrog,001,3,
frog,wnL.wav,20,landoltCTop.png,V1,duckFront.png,frogFront.png,LcongWN,h,-20,landoltCL.png,,,,,5,41,441,25,,,h,0,1.23409355165,,,2020_Feb_26_1011,59.9586367257,duckFrog,001,3,
frog,wnL.wav,20,landoltCBottom.png,V1,duckFront.png,frogFront.png,LcongWN,b,-20,landoltCR.png,,,,,5,42,442,17,,,b,0,1.11792230129,,,2020_Feb_26_1011,59.9586367257,duckFrog,001,3,
duck,wnL.wav,20,landoltCTop.png,V1,frogFront.png,duckFront.png,HcongWN,h,-20,landoltCR.png,,,,,5,43,443,65,,,h,0,0.750796532069,,,2020_Feb_26_1011,59.9586367257,duckFrog,001,3,
frog,wnR.wav,-20,landoltCR.png,V1,frogFront.png,duckFront.png,LcongWN,h,20,landoltCTop.png,,,,,5,44,444,29,,,h,0,0.750574030928,,,2020_Feb_26_1011,59.9586367257,duckFrog,001,3,
duck,wnL.wav,-20,landoltCL.png,V1,duckFront.png,frogFront.png,HinCongWN,b,20,landoltCBottom.png,,,,,5,45,445,63,,,b,0,1.16779407905,,,2020_Feb_26_1011,59.9586367257,duckFrog,001,3,
duck,ribbitL.wav,-20,landoltCR.png,V1,duckFront.png,frogFront.png,HinCong,b,20,landoltCBottom.png,,,,,5,46,446,78,,,b,0,0.817482724087,,,2020_Feb_26_1011,59.9586367257,duckFrog,001,3,
duck,quackR.wav,-20,landoltCR.png,V1,duckFront.png,frogFront.png,Hcong,h,20,landoltCTop.png,,,,,5,47,447,4,,,h,0,0.867533015946,,,2020_Feb_26_1011,59.9586367257,duckFrog,001,3,
duck,wnR.wav,20,landoltCTop.png,V1,frogFront.png,duckFront.png,HinCongWN,h,-20,landoltCR.png,,,,,5,48,448,35,,,h,0,1.01745625855,,,2020_Feb_26_1011,59.9586367257,duckFrog,001,3,
duck,wnR.wav,-20,landoltCL.png,V1,duckFront.png,frogFront.png,HcongWN,h,20,landoltCTop.png,,,,,5,49,449,69,,,h,0,0.650307029573,,,2020_Feb_26_1011,59.9586367257,duckFrog,001,3,
duck,wnL.wav,20,landoltCBottom.png,V1,frogFront.png,duckFront.png,HcongWN,b,-20,landoltCL.png,,,,,5,50,450,41,,,b,0,1.18424340084,,,2020_Feb_26_1011,59.9586367257,duckFrog,001,3,
duck,ribbitR.wav,20,landoltCTop.png,V1,frogFront.png,duckFront.png,HinCong,h,-20,landoltCL.png,,,,,5,51,451,2,,,h,0,1.05106382666,,,2020_Feb_26_1011,59.9586367257,duckFrog,001,3,
frog,wnL.wav,-20,landoltCR.png,V1,frogFront.png,duckFront.png,LinCongWN,b,20,landoltCBottom.png,,,,,5,52,452,23,,,b,0,0.567069978992,,,2020_Feb_26_1011,59.9586367257,duckFrog,001,3,
duck,wnL.wav,-20,landoltCL.png,V1,duckFront.png,frogFront.png,HinCongWN,b,20,landoltCBottom.png,,,,,5,53,453,15,,,b,0,1.00085994671,,,2020_Feb_26_1011,59.9586367257,duckFrog,001,3,
frog,ribbitL.wav,20,landoltCBottom.png,V1,duckFront.png,frogFront.png,Lcong,b,-20,landoltCL.png,,,,,5,54,454,16,,,b,0,1.03391144528,,,2020_Feb_26_1011,59.9586367257,duckFrog,001,3,
frog,ribbitR.wav,-20,landoltCL.png,V1,frogFront.png,duckFront.png,Lcong,b,20,landoltCBottom.png,,,,,5,55,455,20,,,b,0,1.10083480079,,,2020_Feb_26_1011,59.9586367257,duckFrog,001,3,
duck,quackL.wav,20,landoltCTop.png,V1,frogFront.png,duckFront.png,Hcong,h,-20,landoltCL.png,,,,,5,56,456,48,,,h,0,0.967481477797,,,2020_Feb_26_1011,59.9586367257,duckFrog,001,3,
duck,ribbitR.wav,20,landoltCBottom.png,V1,frogFront.png,duckFront.png,HinCong,b,-20,landoltCR.png,,,,,5,57,457,58,,,b,0,0.900878861154,,,2020_Feb_26_1011,59.9586367257,duckFrog,001,3,
duck,quackL.wav,20,landoltCTop.png,V1,frogFront.png,duckFront.png,Hcong,h,-20,landoltCL.png,,,,,5,58,458,32,,,h,0,1.08433489389,,,2020_Feb_26_1011,59.9586367257,duckFrog,001,3,
duck,quackR.wav,-20,landoltCR.png,V1,duckFront.png,frogFront.png,Hcong,b,20,landoltCBottom.png,,,,,5,59,459,76,,,b,0,0.850807308889,,,2020_Feb_26_1011,59.9586367257,duckFrog,001,3,
duck,ribbitL.wav,-20,landoltCR.png,V1,duckFront.png,frogFront.png,HinCong,h,20,landoltCTop.png,,,,,5,60,460,38,,,h,0,0.617346071012,,,2020_Feb_26_1011,59.9586367257,duckFrog,001,3,
frog,quackR.wav,20,landoltCTop.png,V1,duckFront.png,frogFront.png,LinCong,h,-20,landoltCR.png,,,,,5,61,461,26,,,h,0,1.18424633332,,,2020_Feb_26_1011,59.9586367257,duckFrog,001,3,
frog,ribbitR.wav,-20,landoltCL.png,V1,frogFront.png,duckFront.png,Lcong,h,20,landoltCTop.png,,,,,5,62,462,28,,,h,0,1.20109263819,,,2020_Feb_26_1011,59.9586367257,duckFrog,001,3,
frog,quackL.wav,-20,landoltCL.png,V1,frogFront.png,duckFront.png,LinCong,h,20,landoltCTop.png,,,,,5,63,463,30,,,h,0,0.730607578385,,,2020_Feb_26_1011,59.9586367257,duckFrog,001,3,
duck,wnR.wav,-20,landoltCL.png,V1,duckFront.png,frogFront.png,HcongWN,h,20,landoltCTop.png,,,,,5,64,464,53,,,h,0,0.65089682251,,,2020_Feb_26_1011,59.9586367257,duckFrog,001,3,
duck,wnR.wav,20,landoltCBottom.png,V1,frogFront.png,duckFront.png,HinCongWN,b,-20,landoltCL.png,,,,,5,65,465,59,,,b,0,1.08406180766,,,2020_Feb_26_1011,59.9586367257,duckFrog,001,3,
frog,wnR.wav,20,landoltCTop.png,V1,duckFront.png,frogFront.png,LinCongWN,h,-20,landoltCL.png,,,,,5,66,466,27,,,h,0,1.13427191912,,,2020_Feb_26_1011,59.9586367257,duckFrog,001,3,
frog,wnR.wav,20,landoltCBottom.png,V1,duckFront.png,frogFront.png,LinCongWN,b,-20,landoltCR.png,,,,,5,67,467,19,,,b,0,0.684054256562,,,2020_Feb_26_1011,59.9586367257,duckFrog,001,3,
duck,ribbitL.wav,-20,landoltCR.png,V1,duckFront.png,frogFront.png,HinCong,b,20,landoltCBottom.png,,,,,5,68,468,46,,,b,0,0.7197457109,,,2020_Feb_26_1011,59.9586367257,duckFrog,001,3,
duck,quackL.wav,20,landoltCBottom.png,V1,frogFront.png,duckFront.png,Hcong,b,-20,landoltCR.png,,,,,5,69,469,8,,,b,0,0.684032629593,,,2020_Feb_26_1011,59.9586367257,duckFrog,001,3,
duck,wnR.wav,20,landoltCTop.png,V1,frogFront.png,duckFront.png,HinCongWN,h,-20,landoltCR.png,,,,,5,70,470,51,,,h,0,0.917596870466,,,2020_Feb_26_1011,59.9586367257,duckFrog,001,3,
duck,wnL.wav,20,landoltCBottom.png,V1,frogFront.png,duckFront.png,HcongWN,b,-20,landoltCL.png,,,,,5,71,471,73,,,b,0,0.900940809559,,,2020_Feb_26_1011,59.9586367257,duckFrog,001,3,
duck,ribbitL.wav,-20,landoltCR.png,V1,duckFront.png,frogFront.png,HinCong,b,20,landoltCBottom.png,,,,,5,72,472,14,,,b,0,0.633957411745,,,2020_Feb_26_1011,59.9586367257,duckFrog,001,3,
duck,wnL.wav,-20,landoltCL.png,V1,duckFront.png,frogFront.png,HinCongWN,h,20,landoltCTop.png,,,,,5,73,473,39,,,h,0,1.10093633755,,,2020_Feb_26_1011,59.9586367257,duckFrog,001,3,
duck,ribbitR.wav,20,landoltCTop.png,V1,frogFront.png,duckFront.png,HinCong,h,-20,landoltCL.png,,,,,5,74,474,50,,,h,0,0.816856275254,,,2020_Feb_26_1011,59.9586367257,duckFrog,001,3,
duck,ribbitR.wav,20,landoltCBottom.png,V1,frogFront.png,duckFront.png,HinCong,b,-20,landoltCR.png,,,,,5,75,475,10,,,b,0,1.26782941532,,,2020_Feb_26_1011,59.9586367257,duckFrog,001,3,
duck,wnR.wav,-20,landoltCL.png,V1,duckFront.png,frogFront.png,HcongWN,b,20,landoltCBottom.png,,,,,5,76,476,77,,,b,0,1.00073641643,,,2020_Feb_26_1011,59.9586367257,duckFrog,001,3,
duck,quackL.wav,20,landoltCTop.png,V1,frogFront.png,duckFront.png,Hcong,h,-20,landoltCL.png,,,,,5,77,477,0,,,h,0,1.20070225318,,,2020_Feb_26_1011,59.9586367257,duckFrog,001,3,
duck,quackR.wav,-20,landoltCR.png,V1,duckFront.png,frogFront.png,Hcong,b,20,landoltCBottom.png,,,,,5,78,478,44,,,b,0,0.717132513906,,,2020_Feb_26_1011,59.9586367257,duckFrog,001,3,
duck,quackR.wav,-20,landoltCR.png,V1,duckFront.png,frogFront.png,Hcong,b,20,landoltCBottom.png,,,,,5,79,479,60,,,b,0,0.567293213244,,,2020_Feb_26_1011,59.9586367257,duckFrog,001,3,
duck,wnR.wav,20,landoltCBottom.png,V1,frogFront.png,duckFront.png,HinCongWN,b,-20,landoltCL.png,,,,,6,0,480,11,,,h,0,1.1342312311,,,2020_Feb_26_1011,59.9586367257,duckFrog,001,3,
frog,wnL.wav,-20,landoltCR.png,V1,frogFront.png,duckFront.png,LinCongWN,b,20,landoltCBottom.png,,,,,6,1,481,23,,,b,0,0.833987762802,,,2020_Feb_26_1011,59.9586367257,duckFrog,001,3,
duck,ribbitR.wav,20,landoltCTop.png,V1,frogFront.png,duckFront.png,HinCong,h,-20,landoltCL.png,,,,,6,2,482,66,,,h,0,1.08430373641,,,2020_Feb_26_1011,59.9586367257,duckFrog,001,3,
duck,wnR.wav,20,landoltCBottom.png,V1,frogFront.png,duckFront.png,HinCongWN,b,-20,landoltCL.png,,,,,6,3,483,43,,,b,0,1.08448701576,,,2020_Feb_26_1011,59.9586367257,duckFrog,001,3,
duck,wnL.wav,20,landoltCBottom.png,V1,frogFront.png,duckFront.png,HcongWN,b,-20,landoltCL.png,,,,,6,4,484,73,,,b,0,0.901080468437,,,2020_Feb_26_1011,59.9586367257,duckFrog,001,3,
duck,quackL.wav,20,landoltCBottom.png,V1,frogFront.png,duckFront.png,Hcong,b,-20,landoltCR.png,,,,,6,5,485,72,,,b,0,0.667534922046,,,2020_Feb_26_1011,59.9586367257,duckFrog,001,3,
duck,quackL.wav,20,landoltCTop.png,V1,frogFront.png,duckFront.png,Hcong,h,-20,landoltCL.png,,,,,6,6,486,32,,,h,0,0.700715082712,,,2020_Feb_26_1011,59.9586367257,duckFrog,001,3,
duck,ribbitL.wav,-20,landoltCR.png,V1,duckFront.png,frogFront.png,HinCong,h,20,landoltCTop.png,,,,,6,7,487,38,,,h,0,0.9008942566,,,2020_Feb_26_1011,59.9586367257,duckFrog,001,3,
duck,wnL.wav,-20,landoltCL.png,V1,duckFront.png,frogFront.png,HinCongWN,h,20,landoltCTop.png,,,,,6,8,488,7,,,h,0,0.700600349854,,,2020_Feb_26_1011,59.9586367257,duckFrog,001,3,
duck,wnR.wav,-20,landoltCL.png,V1,duckFront.png,frogFront.png,HcongWN,h,20,landoltCTop.png,,,,,6,9,489,53,,,h,0,0.667403694039,,,2020_Feb_26_1011,59.9586367257,duckFrog,001,3,
duck,wnL.wav,-20,landoltCL.png,V1,duckFront.png,frogFront.png,HinCongWN,h,20,landoltCTop.png,,,,,6,10,490,39,,,h,0,1.15113068698,,,2020_Feb_26_1011,59.9586367257,duckFrog,001,3,
duck,ribbitL.wav,-20,landoltCR.png,V1,duckFront.png,frogFront.png,HinCong,h,20,landoltCTop.png,,,,,6,11,491,54,,,h,0,0.901128854181,,,2020_Feb_26_1011,59.9586367257,duckFrog,001,3,
duck,wnL.wav,-20,landoltCL.png,V1,duckFront.png,frogFront.png,HinCongWN,b,20,landoltCBottom.png,,,,,6,12,492,15,,,b,0,1.16786409177,,,2020_Feb_26_1011,59.9586367257,duckFrog,001,3,
frog,ribbitR.wav,-20,landoltCL.png,V1,frogFront.png,duckFront.png,Lcong,h,20,landoltCTop.png,,,,,6,13,493,28,,,h,0,0.650754231188,,,2020_Feb_26_1011,59.9586367257,duckFrog,001,3,
frog,ribbitL.wav,20,landoltCTop.png,V1,duckFront.png,frogFront.png,Lcong,h,-20,landoltCR.png,,,,,6,14,494,24,,,h,0,1.28430732868,,,2020_Feb_26_1011,59.9586367257,duckFrog,001,3,
duck,quackL.wav,20,landoltCTop.png,V1,frogFront.png,duckFront.png,Hcong,h,-20,landoltCL.png,,,,,6,15,495,48,,,h,0,1.4347514512,,,2020_Feb_26_1011,59.9586367257,duckFrog,001,3,
duck,ribbitL.wav,-20,landoltCR.png,V1,duckFront.png,frogFront.png,HinCong,b,20,landoltCBottom.png,,,,,6,16,496,78,,,b,0,0.884049051427,,,2020_Feb_26_1011,59.9586367257,duckFrog,001,3,
duck,wnL.wav,-20,landoltCL.png,V1,duckFront.png,frogFront.png,HinCongWN,h,20,landoltCTop.png,,,,,6,17,497,71,,,h,0,1.33461127915,,,2020_Feb_26_1011,59.9586367257,duckFrog,001,3,
frog,quackL.wav,-20,landoltCL.png,V1,frogFront.png,duckFront.png,LinCong,b,20,landoltCBottom.png,,,,,6,18,498,22,,,b,0,0.750816326239,,,2020_Feb_26_1011,59.9586367257,duckFrog,001,3,
duck,quackR.wav,-20,landoltCR.png,V1,duckFront.png,frogFront.png,Hcong,b,20,landoltCBottom.png,,,,,6,19,499,12,,,b,0,1.06779136651,,,2020_Feb_26_1011,59.9586367257,duckFrog,001,3,
duck,wnR.wav,20,landoltCBottom.png,V1,frogFront.png,duckFront.png,HinCongWN,b,-20,landoltCL.png,,,,,6,20,500,75,,,b,0,1.5179023605,,,2020_Feb_26_1011,59.9586367257,duckFrog,001,3,
duck,wnL.wav,20,landoltCBottom.png,V1,frogFront.png,duckFront.png,HcongWN,b,-20,landoltCL.png,,,,,6,21,501,41,,,b,0,1.08444669429,,,2020_Feb_26_1011,59.9586367257,duckFrog,001,3,
duck,wnR.wav,20,landoltCBottom.png,V1,frogFront.png,duckFront.png,HinCongWN,b,-20,landoltCL.png,,,,,6,22,502,59,,,b,0,1.55157077736,,,2020_Feb_26_1011,59.9586367257,duckFrog,001,3,
duck,wnL.wav,-20,landoltCL.png,V1,duckFront.png,frogFront.png,HinCongWN,b,20,landoltCBottom.png,,,,,6,23,503,79,,,b,0,0.60049316808,,,2020_Feb_26_1011,59.9586367257,duckFrog,001,3,
frog,wnL.wav,20,landoltCBottom.png,V1,duckFront.png,frogFront.png,LcongWN,b,-20,landoltCR.png,,,,,6,24,504,17,,,b,0,0.684062687404,,,2020_Feb_26_1011,59.9586367257,duckFrog,001,3,
duck,quackL.wav,20,landoltCTop.png,V1,frogFront.png,duckFront.png,Hcong,h,-20,landoltCL.png,,,,,6,25,505,0,,,h,0,1.23451472759,,,2020_Feb_26_1011,59.9586367257,duckFrog,001,3,
duck,ribbitL.wav,-20,landoltCR.png,V1,duckFront.png,frogFront.png,HinCong,h,20,landoltCTop.png,,,,,6,26,506,70,,,h,0,1.0009728468,,,2020_Feb_26_1011,59.9586367257,duckFrog,001,3,
frog,wnR.wav,-20,landoltCR.png,V1,frogFront.png,duckFront.png,LcongWN,h,20,landoltCTop.png,,,,,6,27,507,29,,,h,0,0.951206271377,,,2020_Feb_26_1011,59.9586367257,duckFrog,001,3,
duck,ribbitR.wav,20,landoltCBottom.png,V1,frogFront.png,duckFront.png,HinCong,b,-20,landoltCR.png,,,,,6,28,508,74,,,b,0,1.53455695516,,,2020_Feb_26_1011,59.9586367257,duckFrog,001,3,
duck,quackR.wav,-20,landoltCR.png,V1,duckFront.png,frogFront.png,Hcong,b,20,landoltCBottom.png,,,,,6,29,509,60,,,b,0,0.633900228582,,,2020_Feb_26_1011,59.9586367257,duckFrog,001,3,
duck,quackL.wav,20,landoltCBottom.png,V1,frogFront.png,duckFront.png,Hcong,b,-20,landoltCR.png,,,,,6,30,510,40,,,b,0,0.667222614036,,,2020_Feb_26_1011,59.9586367257,duckFrog,001,3,
duck,quackL.wav,20,landoltCBottom.png,V1,frogFront.png,duckFront.png,Hcong,b,-20,landoltCR.png,,,,,6,31,511,8,,,b,0,1.18488341234,,,2020_Feb_26_1011,59.9586367257,duckFrog,001,3,
frog,quackR.wav,20,landoltCBottom.png,V1,duckFront.png,frogFront.png,LinCong,b,-20,landoltCL.png,,,,,6,32,512,18,,,b,0,1.05149526626,,,2020_Feb_26_1011,59.9586367257,duckFrog,001,3,
duck,wnR.wav,-20,landoltCL.png,V1,duckFront.png,frogFront.png,HcongWN,h,20,landoltCTop.png,,,,,6,33,513,37,,,h,0,0.700592652123,,,2020_Feb_26_1011,59.9586367257,duckFrog,001,3,
duck,quackR.wav,-20,landoltCR.png,V1,duckFront.png,frogFront.png,Hcong,b,20,landoltCBottom.png,,,,,6,34,514,44,,,b,0,0.684522352021,,,2020_Feb_26_1011,59.9586367257,duckFrog,001,3,
frog,wnL.wav,-20,landoltCR.png,V1,frogFront.png,duckFront.png,LinCongWN,h,20,landoltCTop.png,,,,,6,35,515,31,,,h,0,1.18466897549,,,2020_Feb_26_1011,59.9586367257,duckFrog,001,3,
frog,wnL.wav,20,landoltCTop.png,V1,duckFront.png,frogFront.png,LcongWN,h,-20,landoltCL.png,,,,,6,36,516,25,,,h,0,1.10100378435,,,2020_Feb_26_1011,59.9586367257,duckFrog,001,3,
duck,wnR.wav,20,landoltCTop.png,V1,frogFront.png,duckFront.png,HinCongWN,h,-20,landoltCR.png,,,,,6,37,517,67,,,h,0,0.867676706956,,,2020_Feb_26_1011,59.9586367257,duckFrog,001,3,
frog,ribbitR.wav,-20,landoltCL.png,V1,frogFront.png,duckFront.png,Lcong,b,20,landoltCBottom.png,,,,,6,38,518,20,,,b,0,0.834485182975,,,2020_Feb_26_1011,59.9586367257,duckFrog,001,3,
frog,wnR.wav,-20,landoltCR.png,V1,frogFront.png,duckFront.png,LcongWN,b,20,landoltCBottom.png,,,,,6,39,519,21,,,b,0,0.734118477645,,,2020_Feb_26_1011,59.9586367257,duckFrog,001,3,
frog,wnR.wav,20,landoltCBottom.png,V1,duckFront.png,frogFront.png,LinCongWN,b,-20,landoltCR.png,,,,,6,40,520,19,,,b,0,0.75085151587,,,2020_Feb_26_1011,59.9586367257,duckFrog,001,3,
duck,ribbitL.wav,-20,landoltCR.png,V1,duckFront.png,frogFront.png,HinCong,b,20,landoltCBottom.png,,,,,6,41,521,46,,,b,0,0.600626595449,,,2020_Feb_26_1011,59.9586367257,duckFrog,001,3,
duck,wnL.wav,-20,landoltCL.png,V1,duckFront.png,frogFront.png,HinCongWN,b,20,landoltCBottom.png,,,,,6,42,522,63,,,b,0,0.567396582803,,,2020_Feb_26_1011,59.9586367257,duckFrog,001,3,
duck,wnR.wav,-20,landoltCL.png,V1,duckFront.png,frogFront.png,HcongWN,b,20,landoltCBottom.png,,,,,6,43,523,61,,,b,0,0.61742048242,,,2020_Feb_26_1011,59.9586367257,duckFrog,001,3,
frog,quackR.wav,20,landoltCTop.png,V1,duckFront.png,frogFront.png,LinCong,h,-20,landoltCR.png,,,,,6,44,524,26,,,h,0,1.01765383368,,,2020_Feb_26_1011,59.9586367257,duckFrog,001,3,
duck,wnL.wav,-20,landoltCL.png,V1,duckFront.png,frogFront.png,HinCongWN,h,20,landoltCTop.png,,,,,6,45,525,55,,,h,0,1.00095121984,,,2020_Feb_26_1011,59.9586367257,duckFrog,001,3,
duck,wnL.wav,20,landoltCBottom.png,V1,frogFront.png,duckFront.png,HcongWN,b,-20,landoltCL.png,,,,,6,46,526,9,,,b,0,1.05081786578,,,2020_Feb_26_1011,59.9586367257,duckFrog,001,3,
duck,ribbitR.wav,20,landoltCBottom.png,V1,frogFront.png,duckFront.png,HinCong,b,-20,landoltCR.png,,,,,6,47,527,42,,,b,0,0.984344644356,,,2020_Feb_26_1011,59.9586367257,duckFrog,001,3,
duck,wnL.wav,20,landoltCTop.png,V1,frogFront.png,duckFront.png,HcongWN,h,-20,landoltCR.png,,,,,6,48,528,33,,,h,0,1.15111089281,,,2020_Feb_26_1011,59.9586367257,duckFrog,001,3,
duck,quackR.wav,-20,landoltCR.png,V1,duckFront.png,frogFront.png,Hcong,h,20,landoltCTop.png,,,,,6,49,529,52,,,h,0,0.683946121731,,,2020_Feb_26_1011,59.9586367257,duckFrog,001,3,
duck,wnL.wav,20,landoltCTop.png,V1,frogFront.png,duckFront.png,HcongWN,h,-20,landoltCR.png,,,,,6,50,530,49,,,h,0,0.850679746451,,,2020_Feb_26_1011,59.9586367257,duckFrog,001,3,
duck,wnR.wav,20,landoltCTop.png,V1,frogFront.png,duckFront.png,HinCongWN,h,-20,landoltCR.png,,,,,6,51,531,51,,,h,0,0.60068414516,,,2020_Feb_26_1011,59.9586367257,duckFrog,001,3,
duck,wnR.wav,-20,landoltCL.png,V1,duckFront.png,frogFront.png,HcongWN,b,20,landoltCBottom.png,,,,,6,52,532,77,,,b,0,0.650512669003,,,2020_Feb_26_1011,59.9586367257,duckFrog,001,3,
duck,wnL.wav,20,landoltCBottom.png,V1,frogFront.png,duckFront.png,HcongWN,b,-20,landoltCL.png,,,,,6,53,533,57,,,b,0,1.21763983114,,,2020_Feb_26_1011,59.9586367257,duckFrog,001,3,
frog,ribbitL.wav,20,landoltCBottom.png,V1,duckFront.png,frogFront.png,Lcong,b,-20,landoltCL.png,,,,,6,54,534,16,,,b,0,1.08441590336,,,2020_Feb_26_1011,59.9586367257,duckFrog,001,3,
duck,ribbitR.wav,20,landoltCTop.png,V1,frogFront.png,duckFront.png,HinCong,h,-20,landoltCL.png,,,,,6,55,535,50,,,h,0,1.08441113812,,,2020_Feb_26_1011,59.9586367257,duckFrog,001,3,
duck,quackL.wav,20,landoltCTop.png,V1,frogFront.png,duckFront.png,Hcong,h,-20,landoltCL.png,,,,,6,56,536,64,,,h,0,1.03438210666,,,2020_Feb_26_1011,59.9586367257,duckFrog,001,3,
duck,ribbitR.wav,20,landoltCBottom.png,V1,frogFront.png,duckFront.png,HinCong,b,-20,landoltCR.png,,,,,6,57,537,10,,,b,0,1.05105576238,,,2020_Feb_26_1011,59.9586367257,duckFrog,001,3,
duck,quackR.wav,-20,landoltCR.png,V1,duckFront.png,frogFront.png,Hcong,h,20,landoltCTop.png,,,,,6,58,538,36,,,h,0,0.667153334434,,,2020_Feb_26_1011,59.9586367257,duckFrog,001,3,
duck,wnR.wav,-20,landoltCL.png,V1,duckFront.png,frogFront.png,HcongWN,h,20,landoltCTop.png,,,,,6,59,539,69,,,h,0,0.600692576016,,,2020_Feb_26_1011,59.9586367257,duckFrog,001,3,
frog,wnR.wav,20,landoltCTop.png,V1,duckFront.png,frogFront.png,LinCongWN,h,-20,landoltCL.png,,,,,6,60,540,27,,,h,0,0.550438110964,,,2020_Feb_26_1011,59.9586367257,duckFrog,001,3,
duck,ribbitL.wav,-20,landoltCR.png,V1,duckFront.png,frogFront.png,HinCong,b,20,landoltCBottom.png,,,,,6,61,541,14,,,b,0,0.600452113504,,,2020_Feb_26_1011,59.9586367257,duckFrog,001,3,
duck,wnR.wav,20,landoltCTop.png,V1,frogFront.png,duckFront.png,HinCongWN,h,-20,landoltCR.png,,,,,6,62,542,3,,,h,0,0.717265574713,,,2020_Feb_26_1011,59.9586367257,duckFrog,001,3,
duck,wnR.wav,20,landoltCTop.png,V1,frogFront.png,duckFront.png,HinCongWN,h,-20,landoltCR.png,,,,,6,63,543,35,,,h,0,0.567357727574,,,2020_Feb_26_1011,59.9586367257,duckFrog,001,3,
duck,ribbitR.wav,20,landoltCBottom.png,V1,frogFront.png,duckFront.png,HinCong,b,-20,landoltCR.png,,,,,6,64,544,58,,,b,0,0.800959724002,,,2020_Feb_26_1011,59.9586367257,duckFrog,001,3,
duck,ribbitR.wav,20,landoltCTop.png,V1,frogFront.png,duckFront.png,HinCong,h,-20,landoltCL.png,,,,,6,65,545,34,,,h,0,0.750906133107,,,2020_Feb_26_1011,59.9586367257,duckFrog,001,3,
duck,wnR.wav,-20,landoltCL.png,V1,duckFront.png,frogFront.png,HcongWN,b,20,landoltCBottom.png,,,,,6,66,546,45,,,b,0,0.633826550285,,,2020_Feb_26_1011,59.9586367257,duckFrog,001,3,
duck,quackR.wav,-20,landoltCR.png,V1,duckFront.png,frogFront.png,Hcong,h,20,landoltCTop.png,,,,,6,67,547,68,,,h,0,0.567181779392,,,2020_Feb_26_1011,59.9586367257,duckFrog,001,3,
duck,quackL.wav,20,landoltCBottom.png,V1,frogFront.png,duckFront.png,Hcong,b,-20,landoltCR.png,,,,,6,68,548,56,,,b,0,1.25092299482,,,2020_Feb_26_1011,59.9586367257,duckFrog,001,3,
