targetAnim,audioPos,distPos,visualL,expLab,picR,picL,condLabel,corrAns,targetPos,visualR,pracTrials1a.thisRepN,pracTrials1a.thisTrialN,pracTrials1a.thisN,pracTrials1a.thisIndex,exp1a.thisRepN,exp1a.thisTrialN,exp1a.thisN,exp1a.thisIndex,pressToCont.keys,pressToCont.rt,key_resp_2.keys,key_resp_2.corr,key_resp_2.rt,spaceToBegin.keys,spaceToBegin.rt,date,frameRate,expName,session,participant,
,,,,,,,,,,,,,,,,,,,space,26.1043559637,,,,,,2020_Feb_26_1123,59.9668081539,duckFrog,001,4,
duck,ribbitL.wav,-20,landoltCR.png,prac,duckFront.png,frogFront.png,HinCong,h,20,landoltCTop.png,0,0,0,1,,,,,,,h,0,4.37047354985,,,2020_Feb_26_1123,59.9668081539,duckFrog,001,4,
frog,wnR.wav,20,landoltCBottom.png,prac,duckFront.png,frogFront.png,LinCongWN,b,-20,landoltCR.png,0,1,1,2,,,,,,,b,0,4.11967628468,,,2020_Feb_26_1123,59.9668081539,duckFrog,001,4,
duck,wnL.wav,20,landoltCBottom.png,prac,frogFront.png,duckFront.png,HcongWN,b,-20,landoltCL.png,0,2,2,4,,,,,,,b,0,4.45390487654,,,2020_Feb_26_1123,59.9668081539,duckFrog,001,4,
frog,ribbitR.wav,-20,landoltCL.png,prac,frogFront.png,duckFront.png,Lcong,b,20,landoltCBottom.png,0,3,3,3,,,,,,,b,0,4.48705314661,,,2020_Feb_26_1123,59.9668081539,duckFrog,001,4,
duck,quackL.wav,20,landoltCTop.png,prac,frogFront.png,duckFront.png,Hcong,h,-20,landoltCL.png,0,4,4,0,,,,,,,h,0,4.87049774273,,,2020_Feb_26_1123,59.9668081539,duckFrog,001,4,
,,,,,,,,,,,,,,,,,,,,,,,,space,15.5959830298,2020_Feb_26_1123,59.9668081539,duckFrog,001,4,
duck,quackL.wav,20,landoltCBottom.png,V2,frogFront.png,duckFront.png,Lcong,b,-20,landoltCR.png,,,,,0,0,0,8,,,b,0,2.83581139236,,,2020_Feb_26_1123,59.9668081539,duckFrog,001,4,
frog,wnL.wav,20,landoltCTop.png,V2,duckFront.png,frogFront.png,HcongWN,h,-20,landoltCL.png,,,,,0,1,1,73,,,h,0,3.65307014907,,,2020_Feb_26_1123,59.9668081539,duckFrog,001,4,
frog,wnL.wav,20,landoltCTop.png,V2,duckFront.png,frogFront.png,HcongWN,h,-20,landoltCL.png,,,,,0,2,2,41,,,h,0,1.56827559056,,,2020_Feb_26_1123,59.9668081539,duckFrog,001,4,
duck,ribbitL.wav,-20,landoltCR.png,V2,duckFront.png,frogFront.png,LinCong,h,20,landoltCTop.png,,,,,0,3,3,6,,,h,0,2.96873730791,,,2020_Feb_26_1123,59.9668081539,duckFrog,001,4,
frog,wnR.wav,-20,landoltCR.png,V2,frogFront.png,duckFront.png,HcongWN,b,20,landoltCBottom.png,,,,,0,4,4,37,,,b,0,2.2021398964,,,2020_Feb_26_1123,59.9668081539,duckFrog,001,4,
frog,wnL.wav,-20,landoltCR.png,V2,frogFront.png,duckFront.png,HinCongWN,h,20,landoltCTop.png,,,,,0,5,5,63,,,h,0,2.13522570486,,,2020_Feb_26_1123,59.9668081539,duckFrog,001,4,
duck,ribbitR.wav,20,landoltCBottom.png,V2,frogFront.png,duckFront.png,LinCong,b,-20,landoltCR.png,,,,,0,6,6,10,,,b,0,1.86805462897,,,2020_Feb_26_1123,59.9668081539,duckFrog,001,4,
frog,wnL.wav,-20,landoltCR.png,V2,frogFront.png,duckFront.png,HinCongWN,b,20,landoltCBottom.png,,,,,0,7,7,55,,,b,0,2.21838211252,,,2020_Feb_26_1123,59.9668081539,duckFrog,001,4,
frog,quackR.wav,20,landoltCBottom.png,V2,duckFront.png,frogFront.png,HinCong,b,-20,landoltCL.png,,,,,0,8,8,66,,,b,0,1.91826144139,,,2020_Feb_26_1123,59.9668081539,duckFrog,001,4,
frog,quackL.wav,-20,landoltCL.png,V2,frogFront.png,duckFront.png,HinCong,h,20,landoltCTop.png,,,,,0,9,9,46,,,h,0,1.65125348415,,,2020_Feb_26_1123,59.9668081539,duckFrog,001,4,
frog,wnL.wav,-20,landoltCR.png,V2,frogFront.png,duckFront.png,HinCongWN,b,20,landoltCBottom.png,,,,,0,10,10,23,,,b,0,1.73491830872,,,2020_Feb_26_1123,59.9668081539,duckFrog,001,4,
duck,wnL.wav,20,landoltCTop.png,V2,frogFront.png,duckFront.png,LcongWN,h,-20,landoltCR.png,,,,,0,11,11,1,,,h,0,2.43518509016,,,2020_Feb_26_1123,59.9668081539,duckFrog,001,4,
frog,ribbitL.wav,20,landoltCTop.png,V2,duckFront.png,frogFront.png,Hcong,h,-20,landoltCR.png,,,,,0,12,12,40,,,h,0,2.48546411464,,,2020_Feb_26_1123,59.9668081539,duckFrog,001,4,
frog,wnR.wav,20,landoltCBottom.png,V2,duckFront.png,frogFront.png,HinCongWN,b,-20,landoltCR.png,,,,,0,13,13,67,,,b,0,1.50137129611,,,2020_Feb_26_1123,59.9668081539,duckFrog,001,4,
frog,quackL.wav,-20,landoltCL.png,V2,frogFront.png,duckFront.png,HinCong,b,20,landoltCBottom.png,,,,,0,14,14,22,,,b,0,1.7179997918,,,2020_Feb_26_1123,59.9668081539,duckFrog,001,4,
frog,wnL.wav,20,landoltCBottom.png,V2,duckFront.png,frogFront.png,HcongWN,b,-20,landoltCR.png,,,,,0,15,15,49,,,b,0,1.15107606973,,,2020_Feb_26_1123,59.9668081539,duckFrog,001,4,
duck,wnR.wav,20,landoltCTop.png,V2,frogFront.png,duckFront.png,LinCongWN,h,-20,landoltCR.png,,,,,0,16,16,3,,,h,0,2.83597817656,,,2020_Feb_26_1123,59.9668081539,duckFrog,001,4,
frog,ribbitL.wav,20,landoltCTop.png,V2,duckFront.png,frogFront.png,Hcong,h,-20,landoltCR.png,,,,,0,17,17,56,,,h,0,1.18445600489,,,2020_Feb_26_1123,59.9668081539,duckFrog,001,4,
duck,wnR.wav,20,landoltCBottom.png,V2,frogFront.png,duckFront.png,LinCongWN,b,-20,landoltCL.png,,,,,0,18,18,11,,,b,0,1.76832940138,,,2020_Feb_26_1123,59.9668081539,duckFrog,001,4,
frog,wnR.wav,20,landoltCTop.png,V2,duckFront.png,frogFront.png,HinCongWN,h,-20,landoltCL.png,,,,,0,19,19,27,,,h,0,1.93508538618,,,2020_Feb_26_1123,59.9668081539,duckFrog,001,4,
frog,ribbitR.wav,-20,landoltCL.png,V2,frogFront.png,duckFront.png,Hcong,h,20,landoltCTop.png,,,,,0,20,20,76,,,h,0,1.56768433138,,,2020_Feb_26_1123,59.9668081539,duckFrog,001,4,
duck,ribbitR.wav,20,landoltCTop.png,V2,frogFront.png,duckFront.png,LinCong,h,-20,landoltCL.png,,,,,0,21,21,2,,,h,0,1.68455680853,,,2020_Feb_26_1123,59.9668081539,duckFrog,001,4,
frog,quackR.wav,20,landoltCTop.png,V2,duckFront.png,frogFront.png,HinCong,h,-20,landoltCR.png,,,,,0,22,22,58,,,h,0,2.06863775056,,,2020_Feb_26_1123,59.9668081539,duckFrog,001,4,
frog,quackL.wav,-20,landoltCL.png,V2,frogFront.png,duckFront.png,HinCong,h,20,landoltCTop.png,,,,,0,23,23,78,,,h,0,1.85116726955,,,2020_Feb_26_1123,59.9668081539,duckFrog,001,4,
frog,quackR.wav,20,landoltCBottom.png,V2,duckFront.png,frogFront.png,HinCong,b,-20,landoltCL.png,,,,,0,24,24,18,,,b,0,1.03399648689,,,2020_Feb_26_1123,59.9668081539,duckFrog,001,4,
duck,quackR.wav,-20,landoltCR.png,V2,duckFront.png,frogFront.png,Lcong,b,20,landoltCBottom.png,,,,,0,25,25,12,,,b,0,1.40112628827,,,2020_Feb_26_1123,59.9668081539,duckFrog,001,4,
frog,ribbitL.wav,20,landoltCBottom.png,V2,duckFront.png,frogFront.png,Hcong,b,-20,landoltCL.png,,,,,0,26,26,48,,,b,0,1.43436986361,,,2020_Feb_26_1123,59.9668081539,duckFrog,001,4,
frog,ribbitL.wav,20,landoltCBottom.png,V2,duckFront.png,frogFront.png,Hcong,b,-20,landoltCL.png,,,,,0,27,27,64,,,b,0,1.10107966201,,,2020_Feb_26_1123,59.9668081539,duckFrog,001,4,
duck,wnR.wav,-20,landoltCL.png,V2,duckFront.png,frogFront.png,LcongWN,b,20,landoltCBottom.png,,,,,0,28,28,13,,,b,0,2.13488773773,,,2020_Feb_26_1123,59.9668081539,duckFrog,001,4,
frog,ribbitR.wav,-20,landoltCL.png,V2,frogFront.png,duckFront.png,Hcong,b,20,landoltCBottom.png,,,,,0,29,29,20,,,b,0,1.26814868794,,,2020_Feb_26_1123,59.9668081539,duckFrog,001,4,
frog,wnL.wav,-20,landoltCR.png,V2,frogFront.png,duckFront.png,HinCongWN,h,20,landoltCTop.png,,,,,0,30,30,31,,,h,0,1.95175024449,,,2020_Feb_26_1123,59.9668081539,duckFrog,001,4,
frog,ribbitL.wav,20,landoltCBottom.png,V2,duckFront.png,frogFront.png,Hcong,b,-20,landoltCL.png,,,,,0,31,31,32,,,b,0,1.13421583563,,,2020_Feb_26_1123,59.9668081539,duckFrog,001,4,
frog,ribbitR.wav,-20,landoltCL.png,V2,frogFront.png,duckFront.png,Hcong,b,20,landoltCBottom.png,,,,,0,32,32,68,,,b,0,1.13409523781,,,2020_Feb_26_1123,59.9668081539,duckFrog,001,4,
frog,quackR.wav,20,landoltCTop.png,V2,duckFront.png,frogFront.png,HinCong,h,-20,landoltCR.png,,,,,0,33,33,42,,,h,0,1.73465695238,,,2020_Feb_26_1123,59.9668081539,duckFrog,001,4,
frog,wnL.wav,20,landoltCBottom.png,V2,duckFront.png,frogFront.png,HcongWN,b,-20,landoltCR.png,,,,,0,34,34,33,,,b,0,1.20123229705,,,2020_Feb_26_1123,59.9668081539,duckFrog,001,4,
frog,quackL.wav,-20,landoltCL.png,V2,frogFront.png,duckFront.png,HinCong,b,20,landoltCBottom.png,,,,,0,35,35,38,,,b,0,1.58444082936,,,2020_Feb_26_1123,59.9668081539,duckFrog,001,4,
frog,wnL.wav,20,landoltCBottom.png,V2,duckFront.png,frogFront.png,HcongWN,b,-20,landoltCR.png,,,,,0,36,36,65,,,b,0,0.85058957302,,,2020_Feb_26_1123,59.9668081539,duckFrog,001,4,
duck,quackL.wav,20,landoltCTop.png,V2,frogFront.png,duckFront.png,Lcong,h,-20,landoltCL.png,,,,,0,37,37,0,,,h,0,1.70155706807,,,2020_Feb_26_1123,59.9668081539,duckFrog,001,4,
frog,ribbitR.wav,-20,landoltCL.png,V2,frogFront.png,duckFront.png,Hcong,h,20,landoltCTop.png,,,,,0,38,38,60,,,h,0,1.33439354328,,,2020_Feb_26_1123,59.9668081539,duckFrog,001,4,
duck,quackR.wav,-20,landoltCR.png,V2,duckFront.png,frogFront.png,Lcong,h,20,landoltCTop.png,,,,,0,39,39,4,,,h,0,1.55169320796,,,2020_Feb_26_1123,59.9668081539,duckFrog,001,4,
frog,wnL.wav,-20,landoltCR.png,V2,frogFront.png,duckFront.png,HinCongWN,b,20,landoltCBottom.png,,,,,0,40,40,71,,,b,0,1.18441788279,,,2020_Feb_26_1123,59.9668081539,duckFrog,001,4,
frog,quackL.wav,-20,landoltCL.png,V2,frogFront.png,duckFront.png,HinCong,b,20,landoltCBottom.png,,,,,0,41,41,70,,,b,0,2.35209356337,,,2020_Feb_26_1123,59.9668081539,duckFrog,001,4,
frog,wnL.wav,-20,landoltCR.png,V2,frogFront.png,duckFront.png,HinCongWN,h,20,landoltCTop.png,,,,,0,42,42,47,,,h,0,1.56816269048,,,2020_Feb_26_1123,59.9668081539,duckFrog,001,4,
frog,wnR.wav,20,landoltCTop.png,V2,duckFront.png,frogFront.png,HinCongWN,h,-20,landoltCL.png,,,,,0,43,43,43,,,h,0,1.68485738667,,,2020_Feb_26_1123,59.9668081539,duckFrog,001,4,
frog,ribbitR.wav,-20,landoltCL.png,V2,frogFront.png,duckFront.png,Hcong,b,20,landoltCBottom.png,,,,,0,44,44,52,,,b,0,1.4177544907,,,2020_Feb_26_1123,59.9668081539,duckFrog,001,4,
frog,wnR.wav,-20,landoltCR.png,V2,frogFront.png,duckFront.png,HcongWN,h,20,landoltCTop.png,,,,,0,45,45,77,,,h,0,1.95173631527,,,2020_Feb_26_1123,59.9668081539,duckFrog,001,4,
frog,ribbitR.wav,-20,landoltCL.png,V2,frogFront.png,duckFront.png,Hcong,b,20,landoltCBottom.png,,,,,0,46,46,36,,,b,0,1.28469368155,,,2020_Feb_26_1123,59.9668081539,duckFrog,001,4,
frog,wnL.wav,20,landoltCTop.png,V2,duckFront.png,frogFront.png,HcongWN,h,-20,landoltCL.png,,,,,0,47,47,25,,,h,0,1.26758602033,,,2020_Feb_26_1123,59.9668081539,duckFrog,001,4,
frog,ribbitR.wav,-20,landoltCL.png,V2,frogFront.png,duckFront.png,Hcong,h,20,landoltCTop.png,,,,,0,48,48,44,,,h,0,1.41778528165,,,2020_Feb_26_1123,59.9668081539,duckFrog,001,4,
frog,wnR.wav,20,landoltCBottom.png,V2,duckFront.png,frogFront.png,HinCongWN,b,-20,landoltCR.png,,,,,0,49,49,35,,,b,0,1.8013556074,,,2020_Feb_26_1123,59.9668081539,duckFrog,001,4,
frog,quackR.wav,20,landoltCBottom.png,V2,duckFront.png,frogFront.png,HinCong,b,-20,landoltCL.png,,,,,0,50,50,34,,,b,0,1.00098017797,,,2020_Feb_26_1123,59.9668081539,duckFrog,001,4,
frog,quackL.wav,-20,landoltCL.png,V2,frogFront.png,duckFront.png,HinCong,h,20,landoltCTop.png,,,,,0,51,51,62,,,h,0,0.967383240059,,,2020_Feb_26_1123,59.9668081539,duckFrog,001,4,
frog,wnR.wav,-20,landoltCR.png,V2,frogFront.png,duckFront.png,HcongWN,h,20,landoltCTop.png,,,,,0,52,52,29,,,h,0,1.78517863872,,,2020_Feb_26_1123,59.9668081539,duckFrog,001,4,
frog,wnR.wav,-20,landoltCR.png,V2,frogFront.png,duckFront.png,HcongWN,b,20,landoltCBottom.png,,,,,0,53,53,53,,,b,0,1.08440930532,,,2020_Feb_26_1123,59.9668081539,duckFrog,001,4,
duck,wnL.wav,-20,landoltCL.png,V2,duckFront.png,frogFront.png,LinCongWN,b,20,landoltCBottom.png,,,,,0,54,54,15,,,b,0,1.68485372109,,,2020_Feb_26_1123,59.9668081539,duckFrog,001,4,
frog,wnR.wav,-20,landoltCR.png,V2,frogFront.png,duckFront.png,HcongWN,h,20,landoltCTop.png,,,,,0,55,55,45,,,h,0,1.40131250009,,,2020_Feb_26_1123,59.9668081539,duckFrog,001,4,
frog,quackR.wav,20,landoltCTop.png,V2,duckFront.png,frogFront.png,HinCong,h,-20,landoltCR.png,,,,,0,56,56,74,,,h,0,1.61773682258,,,2020_Feb_26_1123,59.9668081539,duckFrog,001,4,
frog,quackL.wav,-20,landoltCL.png,V2,frogFront.png,duckFront.png,HinCong,h,20,landoltCTop.png,,,,,0,57,57,30,,,h,0,1.11753081658,,,2020_Feb_26_1123,59.9668081539,duckFrog,001,4,
frog,ribbitR.wav,-20,landoltCL.png,V2,frogFront.png,duckFront.png,Hcong,h,20,landoltCTop.png,,,,,0,58,58,28,,,h,0,1.15129893742,,,2020_Feb_26_1123,59.9668081539,duckFrog,001,4,
duck,wnR.wav,-20,landoltCL.png,V2,duckFront.png,frogFront.png,LcongWN,h,20,landoltCTop.png,,,,,0,59,59,5,,,h,0,1.68485958602,,,2020_Feb_26_1123,59.9668081539,duckFrog,001,4,
frog,wnR.wav,20,landoltCBottom.png,V2,duckFront.png,frogFront.png,HinCongWN,b,-20,landoltCR.png,,,,,0,60,60,51,,,b,0,1.71793491091,,,2020_Feb_26_1123,59.9668081539,duckFrog,001,4,
frog,wnL.wav,-20,landoltCR.png,V2,frogFront.png,duckFront.png,HinCongWN,b,20,landoltCBottom.png,,,,,0,61,61,39,,,b,0,1.48446194314,,,2020_Feb_26_1123,59.9668081539,duckFrog,001,4,
frog,wnR.wav,-20,landoltCR.png,V2,frogFront.png,duckFront.png,HcongWN,h,20,landoltCTop.png,,,,,0,62,62,61,,,h,0,1.317731984,,,2020_Feb_26_1123,59.9668081539,duckFrog,001,4,
frog,ribbitL.wav,20,landoltCTop.png,V2,duckFront.png,frogFront.png,Hcong,h,-20,landoltCR.png,,,,,0,63,63,24,,,h,0,1.15086089977,,,2020_Feb_26_1123,59.9668081539,duckFrog,001,4,
frog,ribbitL.wav,20,landoltCBottom.png,V2,duckFront.png,frogFront.png,Hcong,b,-20,landoltCL.png,,,,,0,64,64,16,,,b,0,1.35125597674,,,2020_Feb_26_1123,59.9668081539,duckFrog,001,4,
frog,wnL.wav,20,landoltCBottom.png,V2,duckFront.png,frogFront.png,HcongWN,b,-20,landoltCR.png,,,,,0,65,65,17,,,b,0,1.56812420182,,,2020_Feb_26_1123,59.9668081539,duckFrog,001,4,
frog,wnL.wav,20,landoltCTop.png,V2,duckFront.png,frogFront.png,HcongWN,h,-20,landoltCL.png,,,,,0,66,66,57,,,h,0,1.86833761229,,,2020_Feb_26_1123,59.9668081539,duckFrog,001,4,
frog,ribbitL.wav,20,landoltCTop.png,V2,duckFront.png,frogFront.png,Hcong,h,-20,landoltCR.png,,,,,0,67,67,72,,,h,0,1.13444970008,,,2020_Feb_26_1123,59.9668081539,duckFrog,001,4,
frog,wnL.wav,-20,landoltCR.png,V2,frogFront.png,duckFront.png,HinCongWN,h,20,landoltCTop.png,,,,,0,68,68,79,,,h,0,1.56775984247,,,2020_Feb_26_1123,59.9668081539,duckFrog,001,4,
frog,wnR.wav,20,landoltCBottom.png,V2,duckFront.png,frogFront.png,HinCongWN,b,-20,landoltCR.png,,,,,0,69,69,19,,,b,0,1.50088560583,,,2020_Feb_26_1123,59.9668081539,duckFrog,001,4,
frog,wnR.wav,-20,landoltCR.png,V2,frogFront.png,duckFront.png,HcongWN,b,20,landoltCBottom.png,,,,,0,70,70,21,,,b,0,1.451057082,,,2020_Feb_26_1123,59.9668081539,duckFrog,001,4,
frog,wnR.wav,20,landoltCTop.png,V2,duckFront.png,frogFront.png,HinCongWN,h,-20,landoltCL.png,,,,,0,71,71,59,,,h,0,1.46782970855,,,2020_Feb_26_1123,59.9668081539,duckFrog,001,4,
duck,ribbitL.wav,-20,landoltCR.png,V2,duckFront.png,frogFront.png,LinCong,b,20,landoltCBottom.png,,,,,0,72,72,14,,,b,0,1.96796093658,,,2020_Feb_26_1123,59.9668081539,duckFrog,001,4,
frog,quackR.wav,20,landoltCTop.png,V2,duckFront.png,frogFront.png,HinCong,h,-20,landoltCR.png,,,,,0,73,73,26,,,h,0,1.80138419897,,,2020_Feb_26_1123,59.9668081539,duckFrog,001,4,
frog,wnR.wav,-20,landoltCR.png,V2,frogFront.png,duckFront.png,HcongWN,b,20,landoltCBottom.png,,,,,0,74,74,69,,,b,0,1.95131623899,,,2020_Feb_26_1123,59.9668081539,duckFrog,001,4,
frog,quackR.wav,20,landoltCBottom.png,V2,duckFront.png,frogFront.png,HinCong,b,-20,landoltCL.png,,,,,0,75,75,50,,,b,0,2.06827852303,,,2020_Feb_26_1123,59.9668081539,duckFrog,001,4,
frog,wnR.wav,20,landoltCTop.png,V2,duckFront.png,frogFront.png,HinCongWN,h,-20,landoltCL.png,,,,,0,76,76,75,,,h,0,1.53470137928,,,2020_Feb_26_1123,59.9668081539,duckFrog,001,4,
duck,wnL.wav,-20,landoltCL.png,V2,duckFront.png,frogFront.png,LinCongWN,h,20,landoltCTop.png,,,,,0,77,77,7,,,h,0,2.23481054047,,,2020_Feb_26_1123,59.9668081539,duckFrog,001,4,
frog,quackL.wav,-20,landoltCL.png,V2,frogFront.png,duckFront.png,HinCong,b,20,landoltCBottom.png,,,,,0,78,78,54,,,b,0,1.93504982999,,,2020_Feb_26_1123,59.9668081539,duckFrog,001,4,
duck,wnL.wav,20,landoltCBottom.png,V2,frogFront.png,duckFront.png,LcongWN,b,-20,landoltCL.png,,,,,0,79,79,9,,,b,0,1.83464500256,,,2020_Feb_26_1123,59.9668081539,duckFrog,001,4,
frog,ribbitR.wav,-20,landoltCL.png,V2,frogFront.png,duckFront.png,Hcong,b,20,landoltCBottom.png,,,,,1,0,80,20,,,b,0,1.45111793073,,,2020_Feb_26_1123,59.9668081539,duckFrog,001,4,
frog,ribbitL.wav,20,landoltCBottom.png,V2,duckFront.png,frogFront.png,Hcong,b,-20,landoltCL.png,,,,,1,1,81,16,,,b,0,1.26752260567,,,2020_Feb_26_1123,59.9668081539,duckFrog,001,4,
frog,ribbitL.wav,20,landoltCTop.png,V2,duckFront.png,frogFront.png,Hcong,h,-20,landoltCR.png,,,,,1,2,82,72,,,h,0,1.15115781232,,,2020_Feb_26_1123,59.9668081539,duckFrog,001,4,
frog,wnL.wav,20,landoltCTop.png,V2,duckFront.png,frogFront.png,HcongWN,h,-20,landoltCL.png,,,,,1,3,83,25,,,h,0,1.38484191788,,,2020_Feb_26_1123,59.9668081539,duckFrog,001,4,
frog,wnR.wav,-20,landoltCR.png,V2,frogFront.png,duckFront.png,HcongWN,h,20,landoltCTop.png,,,,,1,4,84,77,,,b,0,1.55117012869,,,2020_Feb_26_1123,59.9668081539,duckFrog,001,4,
frog,quackR.wav,20,landoltCBottom.png,V2,duckFront.png,frogFront.png,HinCong,b,-20,landoltCL.png,,,,,1,5,85,18,,,b,0,1.15081214746,,,2020_Feb_26_1123,59.9668081539,duckFrog,001,4,
frog,wnR.wav,20,landoltCTop.png,V2,duckFront.png,frogFront.png,HinCongWN,h,-20,landoltCL.png,,,,,1,6,86,27,,,h,0,1.21793637714,,,2020_Feb_26_1123,59.9668081539,duckFrog,001,4,
frog,ribbitR.wav,-20,landoltCL.png,V2,frogFront.png,duckFront.png,Hcong,h,20,landoltCTop.png,,,,,1,7,87,60,,,h,0,1.1005569493,,,2020_Feb_26_1123,59.9668081539,duckFrog,001,4,
frog,wnR.wav,-20,landoltCR.png,V2,frogFront.png,duckFront.png,HcongWN,b,20,landoltCBottom.png,,,,,1,8,88,21,,,b,0,1.61814736832,,,2020_Feb_26_1123,59.9668081539,duckFrog,001,4,
frog,quackR.wav,20,landoltCTop.png,V2,duckFront.png,frogFront.png,HinCong,h,-20,landoltCR.png,,,,,1,9,89,74,,,h,0,1.38446069685,,,2020_Feb_26_1123,59.9668081539,duckFrog,001,4,
frog,quackL.wav,-20,landoltCL.png,V2,frogFront.png,duckFront.png,HinCong,h,20,landoltCTop.png,,,,,1,10,90,46,,,h,0,2.18506339267,,,2020_Feb_26_1123,59.9668081539,duckFrog,001,4,
frog,ribbitL.wav,20,landoltCTop.png,V2,duckFront.png,frogFront.png,Hcong,h,-20,landoltCR.png,,,,,1,11,91,24,,,h,0,1.60145281877,,,2020_Feb_26_1123,59.9668081539,duckFrog,001,4,
duck,wnL.wav,20,landoltCTop.png,V2,frogFront.png,duckFront.png,LcongWN,h,-20,landoltCR.png,,,,,1,12,92,1,,,h,0,1.91834611645,,,2020_Feb_26_1123,59.9668081539,duckFrog,001,4,
duck,wnL.wav,-20,landoltCL.png,V2,duckFront.png,frogFront.png,LinCongWN,b,20,landoltCBottom.png,,,,,1,13,93,15,,,b,0,1.6679080788,,,2020_Feb_26_1123,59.9668081539,duckFrog,001,4,
frog,quackR.wav,20,landoltCBottom.png,V2,duckFront.png,frogFront.png,HinCong,b,-20,landoltCL.png,,,,,1,14,94,66,,,b,0,2.80216716837,,,2020_Feb_26_1123,59.9668081539,duckFrog,001,4,
frog,wnR.wav,-20,landoltCR.png,V2,frogFront.png,duckFront.png,HcongWN,h,20,landoltCTop.png,,,,,1,15,95,45,,,h,0,1.16756058116,,,2020_Feb_26_1123,59.9668081539,duckFrog,001,4,
frog,wnR.wav,20,landoltCBottom.png,V2,duckFront.png,frogFront.png,HinCongWN,b,-20,landoltCR.png,,,,,1,16,96,35,,,b,0,1.20066193171,,,2020_Feb_26_1123,59.9668081539,duckFrog,001,4,
frog,wnL.wav,-20,landoltCR.png,V2,frogFront.png,duckFront.png,HinCongWN,h,20,landoltCTop.png,,,,,1,17,97,47,,,h,0,1.93455277638,,,2020_Feb_26_1123,59.9668081539,duckFrog,001,4,
frog,wnR.wav,20,landoltCTop.png,V2,duckFront.png,frogFront.png,HinCongWN,h,-20,landoltCL.png,,,,,1,18,98,75,,,h,0,1.88462674792,,,2020_Feb_26_1123,59.9668081539,duckFrog,001,4,
duck,wnL.wav,-20,landoltCL.png,V2,duckFront.png,frogFront.png,LinCongWN,h,20,landoltCTop.png,,,,,1,19,99,7,,,h,0,1.63479683117,,,2020_Feb_26_1123,59.9668081539,duckFrog,001,4,
duck,wnR.wav,-20,landoltCL.png,V2,duckFront.png,frogFront.png,LcongWN,h,20,landoltCTop.png,,,,,1,20,100,5,,,h,0,1.53476332771,,,2020_Feb_26_1123,59.9668081539,duckFrog,001,4,
frog,quackR.wav,20,landoltCBottom.png,V2,duckFront.png,frogFront.png,HinCong,b,-20,landoltCL.png,,,,,1,21,101,50,,,b,0,1.70147972417,,,2020_Feb_26_1123,59.9668081539,duckFrog,001,4,
duck,wnR.wav,-20,landoltCL.png,V2,duckFront.png,frogFront.png,LcongWN,b,20,landoltCBottom.png,,,,,1,22,102,13,,,b,0,1.80131052068,,,2020_Feb_26_1123,59.9668081539,duckFrog,001,4,
frog,quackL.wav,-20,landoltCL.png,V2,frogFront.png,duckFront.png,HinCong,h,20,landoltCTop.png,,,,,1,23,103,62,,,h,0,1.68490320652,,,2020_Feb_26_1123,59.9668081539,duckFrog,001,4,
frog,ribbitR.wav,-20,landoltCL.png,V2,frogFront.png,duckFront.png,Hcong,h,20,landoltCTop.png,,,,,1,24,104,28,,,h,0,1.23469177545,,,2020_Feb_26_1123,59.9668081539,duckFrog,001,4,
duck,ribbitR.wav,20,landoltCBottom.png,V2,frogFront.png,duckFront.png,LinCong,b,-20,landoltCR.png,,,,,1,25,105,10,,,b,0,1.25090246752,,,2020_Feb_26_1123,59.9668081539,duckFrog,001,4,
frog,wnL.wav,20,landoltCTop.png,V2,duckFront.png,frogFront.png,HcongWN,h,-20,landoltCL.png,,,,,1,26,106,73,,,b,0,1.28469184876,,,2020_Feb_26_1123,59.9668081539,duckFrog,001,4,
frog,quackR.wav,20,landoltCTop.png,V2,duckFront.png,frogFront.png,HinCong,h,-20,landoltCR.png,,,,,1,27,107,42,,,h,0,1.40129307247,,,2020_Feb_26_1123,59.9668081539,duckFrog,001,4,
frog,wnR.wav,-20,landoltCR.png,V2,frogFront.png,duckFront.png,HcongWN,b,20,landoltCBottom.png,,,,,1,28,108,37,,,b,0,1.20092035559,,,2020_Feb_26_1123,59.9668081539,duckFrog,001,4,
frog,wnL.wav,-20,landoltCR.png,V2,frogFront.png,duckFront.png,HinCongWN,b,20,landoltCBottom.png,,,,,1,29,109,23,,,b,0,2.01838108615,,,2020_Feb_26_1123,59.9668081539,duckFrog,001,4,
frog,ribbitR.wav,-20,landoltCL.png,V2,frogFront.png,duckFront.png,Hcong,h,20,landoltCTop.png,,,,,1,30,110,76,,,h,0,1.76824142729,,,2020_Feb_26_1123,59.9668081539,duckFrog,001,4,
duck,wnL.wav,20,landoltCBottom.png,V2,frogFront.png,duckFront.png,LcongWN,b,-20,landoltCL.png,,,,,1,31,111,9,,,b,0,1.83454859763,,,2020_Feb_26_1123,59.9668081539,duckFrog,001,4,
frog,wnL.wav,-20,landoltCR.png,V2,frogFront.png,duckFront.png,HinCongWN,b,20,landoltCBottom.png,,,,,1,32,112,55,,,b,0,1.63460658721,,,2020_Feb_26_1123,59.9668081539,duckFrog,001,4,
frog,wnL.wav,-20,landoltCR.png,V2,frogFront.png,duckFront.png,HinCongWN,h,20,landoltCTop.png,,,,,1,33,113,63,,,h,0,1.65145215896,,,2020_Feb_26_1123,59.9668081539,duckFrog,001,4,
frog,quackL.wav,-20,landoltCL.png,V2,frogFront.png,duckFront.png,HinCong,b,20,landoltCBottom.png,,,,,1,34,114,38,,,b,0,1.40125128478,,,2020_Feb_26_1123,59.9668081539,duckFrog,001,4,
frog,wnL.wav,20,landoltCBottom.png,V2,duckFront.png,frogFront.png,HcongWN,b,-20,landoltCR.png,,,,,1,35,115,17,,,b,0,2.33529344491,,,2020_Feb_26_1123,59.9668081539,duckFrog,001,4,
frog,quackR.wav,20,landoltCTop.png,V2,duckFront.png,frogFront.png,HinCong,h,-20,landoltCR.png,,,,,1,36,116,58,,,h,0,2.70233710499,,,2020_Feb_26_1123,59.9668081539,duckFrog,001,4,
frog,wnL.wav,20,landoltCBottom.png,V2,duckFront.png,frogFront.png,HcongWN,b,-20,landoltCR.png,,,,,1,37,117,49,,,b,0,1.20136865688,,,2020_Feb_26_1123,59.9668081539,duckFrog,001,4,
frog,wnR.wav,-20,landoltCR.png,V2,frogFront.png,duckFront.png,HcongWN,h,20,landoltCTop.png,,,,,1,38,118,29,,,h,0,1.30084572424,,,2020_Feb_26_1123,59.9668081539,duckFrog,001,4,
frog,wnR.wav,20,landoltCBottom.png,V2,duckFront.png,frogFront.png,HinCongWN,b,-20,landoltCR.png,,,,,1,39,119,51,,,b,0,1.15114424966,,,2020_Feb_26_1123,59.9668081539,duckFrog,001,4,
frog,ribbitR.wav,-20,landoltCL.png,V2,frogFront.png,duckFront.png,Hcong,h,20,landoltCTop.png,,,,,1,40,120,44,,,h,0,1.41780874139,,,2020_Feb_26_1123,59.9668081539,duckFrog,001,4,
frog,ribbitR.wav,-20,landoltCL.png,V2,frogFront.png,duckFront.png,Hcong,b,20,landoltCBottom.png,,,,,1,41,121,52,,,b,0,1.06775361097,,,2020_Feb_26_1123,59.9668081539,duckFrog,001,4,
frog,quackL.wav,-20,landoltCL.png,V2,frogFront.png,duckFront.png,HinCong,b,20,landoltCBottom.png,,,,,1,42,122,22,,,b,0,1.91853526075,,,2020_Feb_26_1123,59.9668081539,duckFrog,001,4,
frog,wnR.wav,20,landoltCTop.png,V2,duckFront.png,frogFront.png,HinCongWN,h,-20,landoltCL.png,,,,,1,43,123,59,,,h,0,1.33413182037,,,2020_Feb_26_1123,59.9668081539,duckFrog,001,4,
frog,wnL.wav,20,landoltCTop.png,V2,duckFront.png,frogFront.png,HcongWN,h,-20,landoltCL.png,,,,,1,44,124,57,,,h,0,1.11797508574,,,2020_Feb_26_1123,59.9668081539,duckFrog,001,4,
duck,quackR.wav,-20,landoltCR.png,V2,duckFront.png,frogFront.png,Lcong,b,20,landoltCBottom.png,,,,,1,45,125,12,,,b,0,1.98489228306,,,2020_Feb_26_1123,59.9668081539,duckFrog,001,4,
frog,quackL.wav,-20,landoltCL.png,V2,frogFront.png,duckFront.png,HinCong,b,20,landoltCBottom.png,,,,,1,46,126,54,,,b,0,1.46795617131,,,2020_Feb_26_1123,59.9668081539,duckFrog,001,4,
frog,wnL.wav,-20,landoltCR.png,V2,frogFront.png,duckFront.png,HinCongWN,b,20,landoltCBottom.png,,,,,1,47,127,39,,,b,0,1.58481911794,,,2020_Feb_26_1123,59.9668081539,duckFrog,001,4,
frog,wnR.wav,20,landoltCBottom.png,V2,duckFront.png,frogFront.png,HinCongWN,b,-20,landoltCR.png,,,,,1,48,128,67,,,b,0,2.13473195028,,,2020_Feb_26_1123,59.9668081539,duckFrog,001,4,
frog,wnL.wav,-20,landoltCR.png,V2,frogFront.png,duckFront.png,HinCongWN,h,20,landoltCTop.png,,,,,1,49,129,31,,,h,0,2.06853218166,,,2020_Feb_26_1123,59.9668081539,duckFrog,001,4,
frog,wnL.wav,20,landoltCTop.png,V2,duckFront.png,frogFront.png,HcongWN,h,-20,landoltCL.png,,,,,1,50,130,41,,,h,0,1.80142671977,,,2020_Feb_26_1123,59.9668081539,duckFrog,001,4,
frog,ribbitR.wav,-20,landoltCL.png,V2,frogFront.png,duckFront.png,Hcong,b,20,landoltCBottom.png,,,,,1,51,131,68,,,b,0,1.0341288146,,,2020_Feb_26_1123,59.9668081539,duckFrog,001,4,
duck,wnR.wav,20,landoltCBottom.png,V2,frogFront.png,duckFront.png,LinCongWN,b,-20,landoltCL.png,,,,,1,52,132,11,,,b,0,1.91811775038,,,2020_Feb_26_1123,59.9668081539,duckFrog,001,4,
frog,wnR.wav,20,landoltCBottom.png,V2,duckFront.png,frogFront.png,HinCongWN,b,-20,landoltCR.png,,,,,1,53,133,19,,,b,0,1.16790111418,,,2020_Feb_26_1123,59.9668081539,duckFrog,001,4,
frog,ribbitL.wav,20,landoltCBottom.png,V2,duckFront.png,frogFront.png,Hcong,b,-20,landoltCL.png,,,,,1,54,134,48,,,b,0,1.2846676559,,,2020_Feb_26_1123,59.9668081539,duckFrog,001,4,
frog,quackL.wav,-20,landoltCL.png,V2,frogFront.png,duckFront.png,HinCong,b,20,landoltCBottom.png,,,,,1,55,135,70,,,b,0,1.91817493354,,,2020_Feb_26_1123,59.9668081539,duckFrog,001,4,
frog,wnR.wav,-20,landoltCR.png,V2,frogFront.png,duckFront.png,HcongWN,b,20,landoltCBottom.png,,,,,1,56,136,69,,,b,0,1.33458268757,,,2020_Feb_26_1123,59.9668081539,duckFrog,001,4,
frog,quackR.wav,20,landoltCTop.png,V2,duckFront.png,frogFront.png,HinCong,h,-20,landoltCR.png,,,,,1,57,137,26,,,h,0,1.71800895577,,,2020_Feb_26_1123,59.9668081539,duckFrog,001,4,
duck,quackR.wav,-20,landoltCR.png,V2,duckFront.png,frogFront.png,Lcong,h,20,landoltCTop.png,,,,,1,58,138,4,,,h,0,1.56780199672,,,2020_Feb_26_1123,59.9668081539,duckFrog,001,4,
frog,wnR.wav,-20,landoltCR.png,V2,frogFront.png,duckFront.png,HcongWN,b,20,landoltCBottom.png,,,,,1,59,139,53,,,b,0,1.58482205041,,,2020_Feb_26_1123,59.9668081539,duckFrog,001,4,
duck,quackL.wav,20,landoltCTop.png,V2,frogFront.png,duckFront.png,Lcong,h,-20,landoltCL.png,,,,,1,60,140,0,,,h,0,1.61785375481,,,2020_Feb_26_1123,59.9668081539,duckFrog,001,4,
frog,wnL.wav,-20,landoltCR.png,V2,frogFront.png,duckFront.png,HinCongWN,b,20,landoltCBottom.png,,,,,1,61,141,71,,,b,0,1.85168998224,,,2020_Feb_26_1123,59.9668081539,duckFrog,001,4,
duck,wnR.wav,20,landoltCTop.png,V2,frogFront.png,duckFront.png,LinCongWN,h,-20,landoltCR.png,,,,,1,62,142,3,,,h,0,1.63454830437,,,2020_Feb_26_1123,59.9668081539,duckFrog,001,4,
frog,wnR.wav,-20,landoltCR.png,V2,frogFront.png,duckFront.png,HcongWN,h,20,landoltCTop.png,,,,,1,63,143,61,,,h,0,1.46738177382,,,2020_Feb_26_1123,59.9668081539,duckFrog,001,4,
frog,quackR.wav,20,landoltCBottom.png,V2,duckFront.png,frogFront.png,HinCong,b,-20,landoltCL.png,,,,,1,64,144,34,,,b,0,0.917230678329,,,2020_Feb_26_1123,59.9668081539,duckFrog,001,4,
frog,ribbitR.wav,-20,landoltCL.png,V2,frogFront.png,duckFront.png,Hcong,b,20,landoltCBottom.png,,,,,1,65,145,36,,,b,0,0.950752471705,,,2020_Feb_26_1123,59.9668081539,duckFrog,001,4,
duck,ribbitL.wav,-20,landoltCR.png,V2,duckFront.png,frogFront.png,LinCong,b,20,landoltCBottom.png,,,,,1,66,146,14,,,b,0,1.66820169233,,,2020_Feb_26_1123,59.9668081539,duckFrog,001,4,
frog,wnR.wav,20,landoltCTop.png,V2,duckFront.png,frogFront.png,HinCongWN,h,-20,landoltCL.png,,,,,1,67,147,43,,,h,0,1.56799993842,,,2020_Feb_26_1123,59.9668081539,duckFrog,001,4,
duck,ribbitL.wav,-20,landoltCR.png,V2,duckFront.png,frogFront.png,LinCong,h,20,landoltCTop.png,,,,,1,68,148,6,,,h,0,1.55106309355,,,2020_Feb_26_1123,59.9668081539,duckFrog,001,4,
frog,quackL.wav,-20,landoltCL.png,V2,frogFront.png,duckFront.png,HinCong,h,20,landoltCTop.png,,,,,1,69,149,78,,,h,0,1.20128434838,,,2020_Feb_26_1123,59.9668081539,duckFrog,001,4,
frog,ribbitL.wav,20,landoltCBottom.png,V2,duckFront.png,frogFront.png,Hcong,b,-20,landoltCL.png,,,,,1,70,150,64,,,b,0,0.96717576783,,,2020_Feb_26_1123,59.9668081539,duckFrog,001,4,
frog,wnL.wav,20,landoltCBottom.png,V2,duckFront.png,frogFront.png,HcongWN,b,-20,landoltCR.png,,,,,1,71,151,33,,,b,0,1.01769708762,,,2020_Feb_26_1123,59.9668081539,duckFrog,001,4,
frog,wnL.wav,20,landoltCBottom.png,V2,duckFront.png,frogFront.png,HcongWN,b,-20,landoltCR.png,,,,,1,72,152,65,,,b,0,0.984591338376,,,2020_Feb_26_1123,59.9668081539,duckFrog,001,4,
duck,quackL.wav,20,landoltCBottom.png,V2,frogFront.png,duckFront.png,Lcong,b,-20,landoltCR.png,,,,,1,73,153,8,,,b,0,1.16793483761,,,2020_Feb_26_1123,59.9668081539,duckFrog,001,4,
frog,wnL.wav,-20,landoltCR.png,V2,frogFront.png,duckFront.png,HinCongWN,h,20,landoltCTop.png,,,,,1,74,154,79,,,h,0,2.45192069429,,,2020_Feb_26_1123,59.9668081539,duckFrog,001,4,
frog,quackL.wav,-20,landoltCL.png,V2,frogFront.png,duckFront.png,HinCong,h,20,landoltCTop.png,,,,,1,75,155,30,,,h,0,1.66813864422,,,2020_Feb_26_1123,59.9668081539,duckFrog,001,4,
frog,ribbitL.wav,20,landoltCTop.png,V2,duckFront.png,frogFront.png,Hcong,h,-20,landoltCR.png,,,,,1,76,156,56,,,h,0,1.06735149607,,,2020_Feb_26_1123,59.9668081539,duckFrog,001,4,
frog,ribbitL.wav,20,landoltCBottom.png,V2,duckFront.png,frogFront.png,Hcong,b,-20,landoltCL.png,,,,,1,77,157,32,,,b,0,0.901055542447,,,2020_Feb_26_1123,59.9668081539,duckFrog,001,4,
frog,ribbitL.wav,20,landoltCTop.png,V2,duckFront.png,frogFront.png,Hcong,h,-20,landoltCR.png,,,,,1,78,158,40,,,h,0,1.23471266929,,,2020_Feb_26_1123,59.9668081539,duckFrog,001,4,
duck,ribbitR.wav,20,landoltCTop.png,V2,frogFront.png,duckFront.png,LinCong,h,-20,landoltCL.png,,,,,1,79,159,2,,,b,0,2.20208601226,,,2020_Feb_26_1123,59.9668081539,duckFrog,001,4,
frog,quackR.wav,20,landoltCBottom.png,V2,duckFront.png,frogFront.png,HinCong,b,-20,landoltCL.png,,,,,2,0,160,66,,,b,0,1.18436729768,,,2020_Feb_26_1123,59.9668081539,duckFrog,001,4,
duck,wnR.wav,20,landoltCTop.png,V2,frogFront.png,duckFront.png,LinCongWN,h,-20,landoltCR.png,,,,,2,1,161,3,,,h,0,1.985157305,,,2020_Feb_26_1123,59.9668081539,duckFrog,001,4,
frog,ribbitL.wav,20,landoltCBottom.png,V2,duckFront.png,frogFront.png,Hcong,b,-20,landoltCL.png,,,,,2,2,162,32,,,b,0,1.0512001865,,,2020_Feb_26_1123,59.9668081539,duckFrog,001,4,
frog,wnL.wav,-20,landoltCR.png,V2,frogFront.png,duckFront.png,HinCongWN,b,20,landoltCBottom.png,,,,,2,3,163,23,,,b,0,2.03493011191,,,2020_Feb_26_1123,59.9668081539,duckFrog,001,4,
frog,wnL.wav,-20,landoltCR.png,V2,frogFront.png,duckFront.png,HinCongWN,h,20,landoltCTop.png,,,,,2,4,164,47,,,h,0,2.55223791421,,,2020_Feb_26_1123,59.9668081539,duckFrog,001,4,
duck,wnL.wav,20,landoltCTop.png,V2,frogFront.png,duckFront.png,LcongWN,h,-20,landoltCR.png,,,,,2,5,165,1,,,h,0,1.88458825927,,,2020_Feb_26_1123,59.9668081539,duckFrog,001,4,
frog,ribbitL.wav,20,landoltCTop.png,V2,duckFront.png,frogFront.png,Hcong,h,-20,landoltCR.png,,,,,2,6,166,24,,,h,0,1.45151454725,,,2020_Feb_26_1123,59.9668081539,duckFrog,001,4,
duck,wnR.wav,-20,landoltCL.png,V2,duckFront.png,frogFront.png,LcongWN,b,20,landoltCBottom.png,,,,,2,7,167,13,,,b,0,3.20230668061,,,2020_Feb_26_1123,59.9668081539,duckFrog,001,4,
frog,wnR.wav,20,landoltCBottom.png,V2,duckFront.png,frogFront.png,HinCongWN,b,-20,landoltCR.png,,,,,2,8,168,51,,,b,0,1.01742400139,,,2020_Feb_26_1123,59.9668081539,duckFrog,001,4,
frog,wnL.wav,20,landoltCTop.png,V2,duckFront.png,frogFront.png,HcongWN,h,-20,landoltCL.png,,,,,2,9,169,41,,,h,0,1.13443723709,,,2020_Feb_26_1123,59.9668081539,duckFrog,001,4,
duck,wnR.wav,-20,landoltCL.png,V2,duckFront.png,frogFront.png,LcongWN,h,20,landoltCTop.png,,,,,2,10,170,5,,,h,0,1.76815235353,,,2020_Feb_26_1123,59.9668081539,duckFrog,001,4,
duck,ribbitR.wav,20,landoltCBottom.png,V2,frogFront.png,duckFront.png,LinCong,b,-20,landoltCR.png,,,,,2,11,171,10,,,b,0,1.45123193049,,,2020_Feb_26_1123,59.9668081539,duckFrog,001,4,
frog,quackR.wav,20,landoltCBottom.png,V2,duckFront.png,frogFront.png,HinCong,b,-20,landoltCL.png,,,,,2,12,172,50,,,b,0,1.26804311904,,,2020_Feb_26_1123,59.9668081539,duckFrog,001,4,
frog,ribbitL.wav,20,landoltCBottom.png,V2,duckFront.png,frogFront.png,Hcong,b,-20,landoltCL.png,,,,,2,13,173,64,,,b,0,1.06758242805,,,2020_Feb_26_1123,59.9668081539,duckFrog,001,4,
frog,ribbitR.wav,-20,landoltCL.png,V2,frogFront.png,duckFront.png,Hcong,h,20,landoltCTop.png,,,,,2,14,174,28,,,b,0,1.5181028681,,,2020_Feb_26_1123,59.9668081539,duckFrog,001,4,
frog,wnR.wav,-20,landoltCR.png,V2,frogFront.png,duckFront.png,HcongWN,b,20,landoltCBottom.png,,,,,2,15,175,21,,,b,0,1.05107409031,,,2020_Feb_26_1123,59.9668081539,duckFrog,001,4,
frog,wnR.wav,-20,landoltCR.png,V2,frogFront.png,duckFront.png,HcongWN,h,20,landoltCTop.png,,,,,2,16,176,45,,,h,0,0.850825270274,,,2020_Feb_26_1123,59.9668081539,duckFrog,001,4,
frog,quackL.wav,-20,landoltCL.png,V2,frogFront.png,duckFront.png,HinCong,h,20,landoltCTop.png,,,,,2,17,177,62,,,h,0,1.15116990876,,,2020_Feb_26_1123,59.9668081539,duckFrog,001,4,
frog,quackL.wav,-20,landoltCL.png,V2,frogFront.png,duckFront.png,HinCong,h,20,landoltCTop.png,,,,,2,18,178,46,,,h,0,1.18448679583,,,2020_Feb_26_1123,59.9668081539,duckFrog,001,4,
frog,quackR.wav,20,landoltCBottom.png,V2,duckFront.png,frogFront.png,HinCong,b,-20,landoltCL.png,,,,,2,19,179,18,,,b,0,1.20108640668,,,2020_Feb_26_1123,59.9668081539,duckFrog,001,4,
duck,ribbitR.wav,20,landoltCTop.png,V2,frogFront.png,duckFront.png,LinCong,h,-20,landoltCL.png,,,,,2,20,180,2,,,h,0,1.88502886283,,,2020_Feb_26_1123,59.9668081539,duckFrog,001,4,
frog,quackL.wav,-20,landoltCL.png,V2,frogFront.png,duckFront.png,HinCong,b,20,landoltCBottom.png,,,,,2,21,181,54,,,b,0,1.70137598806,,,2020_Feb_26_1123,59.9668081539,duckFrog,001,4,
frog,ribbitR.wav,-20,landoltCL.png,V2,frogFront.png,duckFront.png,Hcong,b,20,landoltCBottom.png,,,,,2,22,182,68,,,b,0,0.984288560881,,,2020_Feb_26_1123,59.9668081539,duckFrog,001,4,
frog,wnR.wav,-20,landoltCR.png,V2,frogFront.png,duckFront.png,HcongWN,h,20,landoltCTop.png,,,,,2,23,183,77,,,h,0,1.28471420884,,,2020_Feb_26_1123,59.9668081539,duckFrog,001,4,
frog,quackL.wav,-20,landoltCL.png,V2,frogFront.png,duckFront.png,HinCong,b,20,landoltCBottom.png,,,,,2,24,184,38,,,b,0,1.03439530276,,,2020_Feb_26_1123,59.9668081539,duckFrog,001,4,
frog,wnR.wav,-20,landoltCR.png,V2,frogFront.png,duckFront.png,HcongWN,h,20,landoltCTop.png,,,,,2,25,185,29,,,h,0,1.6828600083,,,2020_Feb_26_1123,59.9668081539,duckFrog,001,4,
frog,wnR.wav,20,landoltCBottom.png,V2,duckFront.png,frogFront.png,HinCongWN,b,-20,landoltCR.png,,,,,2,26,186,19,,,b,0,2.30170933653,,,2020_Feb_26_1123,59.9668081539,duckFrog,001,4,
frog,ribbitL.wav,20,landoltCTop.png,V2,duckFront.png,frogFront.png,Hcong,h,-20,landoltCR.png,,,,,2,27,187,40,,,h,0,1.21803681423,,,2020_Feb_26_1123,59.9668081539,duckFrog,001,4,
frog,ribbitR.wav,-20,landoltCL.png,V2,frogFront.png,duckFront.png,Hcong,h,20,landoltCTop.png,,,,,2,28,188,44,,,h,0,1.01764027102,,,2020_Feb_26_1123,59.9668081539,duckFrog,001,4,
frog,ribbitR.wav,-20,landoltCL.png,V2,frogFront.png,duckFront.png,Hcong,b,20,landoltCBottom.png,,,,,2,29,189,36,,,b,0,1.06778806749,,,2020_Feb_26_1123,59.9668081539,duckFrog,001,4,
frog,wnL.wav,-20,landoltCR.png,V2,frogFront.png,duckFront.png,HinCongWN,h,20,landoltCTop.png,,,,,2,30,190,63,,,h,0,1.73484389731,,,2020_Feb_26_1123,59.9668081539,duckFrog,001,4,
duck,quackR.wav,-20,landoltCR.png,V2,duckFront.png,frogFront.png,Lcong,b,20,landoltCBottom.png,,,,,2,31,191,12,,,b,0,1.66818702998,,,2020_Feb_26_1123,59.9668081539,duckFrog,001,4,
frog,ribbitL.wav,20,landoltCTop.png,V2,duckFront.png,frogFront.png,Hcong,h,-20,landoltCR.png,,,,,2,32,192,56,,,h,0,1.00081339377,,,2020_Feb_26_1123,59.9668081539,duckFrog,001,4,
frog,wnL.wav,-20,landoltCR.png,V2,frogFront.png,duckFront.png,HinCongWN,b,20,landoltCBottom.png,,,,,2,33,193,71,,,b,0,0.984259969293,,,2020_Feb_26_1123,59.9668081539,duckFrog,001,4,
frog,wnR.wav,-20,landoltCR.png,V2,frogFront.png,duckFront.png,HcongWN,h,20,landoltCTop.png,,,,,2,34,194,61,,,h,0,1.23447440614,,,2020_Feb_26_1123,59.9668081539,duckFrog,001,4,
frog,ribbitR.wav,-20,landoltCL.png,V2,frogFront.png,duckFront.png,Hcong,h,20,landoltCTop.png,,,,,2,35,195,76,,,h,0,1.7517840412,,,2020_Feb_26_1123,59.9668081539,duckFrog,001,4,
frog,wnR.wav,20,landoltCTop.png,V2,duckFront.png,frogFront.png,HinCongWN,h,-20,landoltCL.png,,,,,2,36,196,43,,,h,0,1.25107951538,,,2020_Feb_26_1123,59.9668081539,duckFrog,001,4,
frog,wnR.wav,-20,landoltCR.png,V2,frogFront.png,duckFront.png,HcongWN,b,20,landoltCBottom.png,,,,,2,37,197,37,,,b,0,1.10080291018,,,2020_Feb_26_1123,59.9668081539,duckFrog,001,4,
frog,ribbitR.wav,-20,landoltCL.png,V2,frogFront.png,duckFront.png,Hcong,b,20,landoltCBottom.png,,,,,2,38,198,20,,,b,0,0.900904153692,,,2020_Feb_26_1123,59.9668081539,duckFrog,001,4,
frog,wnL.wav,-20,landoltCR.png,V2,frogFront.png,duckFront.png,HinCongWN,h,20,landoltCTop.png,,,,,2,39,199,79,,,h,0,1.45135949292,,,2020_Feb_26_1123,59.9668081539,duckFrog,001,4,
frog,ribbitL.wav,20,landoltCTop.png,V2,duckFront.png,frogFront.png,Hcong,h,-20,landoltCR.png,,,,,2,40,200,72,,,h,0,4.45344887752,,,2020_Feb_26_1123,59.9668081539,duckFrog,001,4,
frog,wnR.wav,-20,landoltCR.png,V2,frogFront.png,duckFront.png,HcongWN,b,20,landoltCBottom.png,,,,,2,41,201,69,,,b,0,0.967345484518,,,2020_Feb_26_1123,59.9668081539,duckFrog,001,4,
frog,wnL.wav,20,landoltCTop.png,V2,duckFront.png,frogFront.png,HcongWN,h,-20,landoltCL.png,,,,,2,42,202,73,,,h,0,0.91730802221,,,2020_Feb_26_1123,59.9668081539,duckFrog,001,4,
frog,quackR.wav,20,landoltCBottom.png,V2,duckFront.png,frogFront.png,HinCong,b,-20,landoltCL.png,,,,,2,43,203,34,,,b,0,1.05116059816,,,2020_Feb_26_1123,59.9668081539,duckFrog,001,4,
duck,wnL.wav,-20,landoltCL.png,V2,duckFront.png,frogFront.png,LinCongWN,b,20,landoltCBottom.png,,,,,2,44,204,15,,,b,0,1.83454053332,,,2020_Feb_26_1123,59.9668081539,duckFrog,001,4,
frog,wnL.wav,20,landoltCTop.png,V2,duckFront.png,frogFront.png,HcongWN,h,-20,landoltCL.png,,,,,2,45,205,57,,,h,0,1.00094902048,,,2020_Feb_26_1123,59.9668081539,duckFrog,001,4,
frog,ribbitL.wav,20,landoltCBottom.png,V2,duckFront.png,frogFront.png,Hcong,b,-20,landoltCL.png,,,,,2,46,206,16,,,b,0,0.884255057405,,,2020_Feb_26_1123,59.9668081539,duckFrog,001,4,
frog,quackR.wav,20,landoltCTop.png,V2,duckFront.png,frogFront.png,HinCong,h,-20,landoltCR.png,,,,,2,47,207,74,,,h,0,1.03435131571,,,2020_Feb_26_1123,59.9668081539,duckFrog,001,4,
frog,ribbitR.wav,-20,landoltCL.png,V2,frogFront.png,duckFront.png,Hcong,b,20,landoltCBottom.png,,,,,2,48,208,52,,,b,0,1.44915134329,,,2020_Feb_26_1123,59.9668081539,duckFrog,001,4,
frog,wnL.wav,20,landoltCTop.png,V2,duckFront.png,frogFront.png,HcongWN,h,-20,landoltCL.png,,,,,2,49,209,25,,,h,0,1.01733822664,,,2020_Feb_26_1123,59.9668081539,duckFrog,001,4,
frog,ribbitR.wav,-20,landoltCL.png,V2,frogFront.png,duckFront.png,Hcong,h,20,landoltCTop.png,,,,,2,50,210,60,,,h,0,1.46777325853,,,2020_Feb_26_1123,59.9668081539,duckFrog,001,4,
duck,ribbitL.wav,-20,landoltCR.png,V2,duckFront.png,frogFront.png,LinCong,h,20,landoltCTop.png,,,,,2,51,211,6,,,h,0,1.68509161768,,,2020_Feb_26_1123,59.9668081539,duckFrog,001,4,
frog,wnR.wav,20,landoltCTop.png,V2,duckFront.png,frogFront.png,HinCongWN,h,-20,landoltCL.png,,,,,2,52,212,59,,,h,0,0.867266527755,,,2020_Feb_26_1123,59.9668081539,duckFrog,001,4,
frog,wnL.wav,20,landoltCBottom.png,V2,duckFront.png,frogFront.png,HcongWN,b,-20,landoltCR.png,,,,,2,53,213,33,,,b,0,0.867572237723,,,2020_Feb_26_1123,59.9668081539,duckFrog,001,4,
frog,wnL.wav,-20,landoltCR.png,V2,frogFront.png,duckFront.png,HinCongWN,h,20,landoltCTop.png,,,,,2,54,214,31,,,h,0,1.01738294681,,,2020_Feb_26_1123,59.9668081539,duckFrog,001,4,
duck,wnL.wav,-20,landoltCL.png,V2,duckFront.png,frogFront.png,LinCongWN,h,20,landoltCTop.png,,,,,2,55,215,7,,,h,0,1.53474939847,,,2020_Feb_26_1123,59.9668081539,duckFrog,001,4,
duck,ribbitL.wav,-20,landoltCR.png,V2,duckFront.png,frogFront.png,LinCong,b,20,landoltCBottom.png,,,,,2,56,216,14,,,b,0,1.0512712989,,,2020_Feb_26_1123,59.9668081539,duckFrog,001,4,
frog,quackL.wav,-20,landoltCL.png,V2,frogFront.png,duckFront.png,HinCong,b,20,landoltCBottom.png,,,,,2,57,217,22,,,b,0,0.90102915022,,,2020_Feb_26_1123,59.9668081539,duckFrog,001,4,
frog,quackL.wav,-20,landoltCL.png,V2,frogFront.png,duckFront.png,HinCong,b,20,landoltCBottom.png,,,,,2,58,218,70,,,b,0,0.650886925447,,,2020_Feb_26_1123,59.9668081539,duckFrog,001,4,
frog,wnR.wav,20,landoltCTop.png,V2,duckFront.png,frogFront.png,HinCongWN,h,-20,landoltCL.png,,,,,2,59,219,27,,,h,0,1.28442829306,,,2020_Feb_26_1123,59.9668081539,duckFrog,001,4,
frog,quackR.wav,20,landoltCTop.png,V2,duckFront.png,frogFront.png,HinCong,h,-20,landoltCR.png,,,,,2,60,220,58,,,h,0,0.93429728497,,,2020_Feb_26_1123,59.9668081539,duckFrog,001,4,
frog,wnR.wav,20,landoltCTop.png,V2,duckFront.png,frogFront.png,HinCongWN,h,-20,landoltCL.png,,,,,2,61,221,75,,,h,0,0.674696379428,,,2020_Feb_26_1123,59.9668081539,duckFrog,001,4,
frog,quackR.wav,20,landoltCTop.png,V2,duckFront.png,frogFront.png,HinCong,h,-20,landoltCR.png,,,,,2,62,222,42,,,h,0,0.967611239583,,,2020_Feb_26_1123,59.9668081539,duckFrog,001,4,
frog,wnL.wav,20,landoltCBottom.png,V2,duckFront.png,frogFront.png,HcongWN,b,-20,landoltCR.png,,,,,2,63,223,17,,,b,0,0.800862219374,,,2020_Feb_26_1123,59.9668081539,duckFrog,001,4,
frog,wnL.wav,20,landoltCBottom.png,V2,duckFront.png,frogFront.png,HcongWN,b,-20,landoltCR.png,,,,,2,64,224,49,,,b,0,0.834326463053,,,2020_Feb_26_1123,59.9668081539,duckFrog,001,4,
duck,quackL.wav,20,landoltCBottom.png,V2,frogFront.png,duckFront.png,Lcong,b,-20,landoltCR.png,,,,,2,65,225,8,,,b,0,1.31796951404,,,2020_Feb_26_1123,59.9668081539,duckFrog,001,4,
frog,quackL.wav,-20,landoltCL.png,V2,frogFront.png,duckFront.png,HinCong,h,20,landoltCTop.png,,,,,2,66,226,78,,,h,0,1.65104857783,,,2020_Feb_26_1123,59.9668081539,duckFrog,001,4,
frog,quackL.wav,-20,landoltCL.png,V2,frogFront.png,duckFront.png,HinCong,h,20,landoltCTop.png,,,,,2,67,227,30,,,h,0,1.16781533946,,,2020_Feb_26_1123,59.9668081539,duckFrog,001,4,
duck,wnL.wav,20,landoltCBottom.png,V2,frogFront.png,duckFront.png,LcongWN,b,-20,landoltCL.png,,,,,2,68,228,9,,,b,0,1.73466428355,,,2020_Feb_26_1123,59.9668081539,duckFrog,001,4,
duck,wnR.wav,20,landoltCBottom.png,V2,frogFront.png,duckFront.png,LinCongWN,b,-20,landoltCL.png,,,,,2,69,229,11,,,b,0,2.10189048985,,,2020_Feb_26_1123,59.9668081539,duckFrog,001,4,
frog,wnR.wav,20,landoltCBottom.png,V2,duckFront.png,frogFront.png,HinCongWN,b,-20,landoltCR.png,,,,,2,70,230,67,,,b,0,1.11773828883,,,2020_Feb_26_1123,59.9668081539,duckFrog,001,4,
duck,quackL.wav,20,landoltCTop.png,V2,frogFront.png,duckFront.png,Lcong,h,-20,landoltCL.png,,,,,2,71,231,0,,,h,0,1.06769239566,,,2020_Feb_26_1123,59.9668081539,duckFrog,001,4,
frog,wnL.wav,20,landoltCBottom.png,V2,duckFront.png,frogFront.png,HcongWN,b,-20,landoltCR.png,,,,,2,72,232,65,,,b,0,1.13461355183,,,2020_Feb_26_1123,59.9668081539,duckFrog,001,4,
frog,ribbitL.wav,20,landoltCBottom.png,V2,duckFront.png,frogFront.png,Hcong,b,-20,landoltCL.png,,,,,2,73,233,48,,,b,0,0.750822557733,,,2020_Feb_26_1123,59.9668081539,duckFrog,001,4,
frog,wnL.wav,-20,landoltCR.png,V2,frogFront.png,duckFront.png,HinCongWN,b,20,landoltCBottom.png,,,,,2,74,234,55,,,b,0,1.96819626726,,,2020_Feb_26_1123,59.9668081539,duckFrog,001,4,
frog,wnR.wav,20,landoltCBottom.png,V2,duckFront.png,frogFront.png,HinCongWN,b,-20,landoltCR.png,,,,,2,75,235,35,,,b,0,2.13497021345,,,2020_Feb_26_1123,59.9668081539,duckFrog,001,4,
frog,wnL.wav,-20,landoltCR.png,V2,frogFront.png,duckFront.png,HinCongWN,b,20,landoltCBottom.png,,,,,2,76,236,39,,,b,0,1.06753624167,,,2020_Feb_26_1123,59.9668081539,duckFrog,001,4,
frog,quackR.wav,20,landoltCTop.png,V2,duckFront.png,frogFront.png,HinCong,h,-20,landoltCR.png,,,,,2,77,237,26,,,h,0,2.83558082693,,,2020_Feb_26_1123,59.9668081539,duckFrog,001,4,
frog,wnR.wav,-20,landoltCR.png,V2,frogFront.png,duckFront.png,HcongWN,b,20,landoltCBottom.png,,,,,2,78,238,53,,,b,0,1.45113295964,,,2020_Feb_26_1123,59.9668081539,duckFrog,001,4,
duck,quackR.wav,-20,landoltCR.png,V2,duckFront.png,frogFront.png,Lcong,h,20,landoltCTop.png,,,,,2,79,239,4,,,h,0,2.0352702784,,,2020_Feb_26_1123,59.9668081539,duckFrog,001,4,
frog,quackL.wav,-20,landoltCL.png,V2,frogFront.png,duckFront.png,HinCong,h,20,landoltCTop.png,,,,,3,0,240,62,,,h,0,1.35149277365,,,2020_Feb_26_1123,59.9668081539,duckFrog,001,4,
frog,ribbitL.wav,20,landoltCTop.png,V2,duckFront.png,frogFront.png,Hcong,h,-20,landoltCR.png,,,,,3,1,241,40,,,h,0,1.21752179923,,,2020_Feb_26_1123,59.9668081539,duckFrog,001,4,
duck,ribbitL.wav,-20,landoltCR.png,V2,duckFront.png,frogFront.png,LinCong,h,20,landoltCTop.png,,,,,3,2,242,6,,,h,0,1.60118229843,,,2020_Feb_26_1123,59.9668081539,duckFrog,001,4,
duck,quackR.wav,-20,landoltCR.png,V2,duckFront.png,frogFront.png,Lcong,b,20,landoltCBottom.png,,,,,3,3,243,12,,,b,0,1.56828548765,,,2020_Feb_26_1123,59.9668081539,duckFrog,001,4,
duck,ribbitL.wav,-20,landoltCR.png,V2,duckFront.png,frogFront.png,LinCong,b,20,landoltCBottom.png,,,,,3,4,244,14,,,b,0,1.45143317123,,,2020_Feb_26_1123,59.9668081539,duckFrog,001,4,
frog,wnR.wav,-20,landoltCR.png,V2,frogFront.png,duckFront.png,HcongWN,b,20,landoltCBottom.png,,,,,3,5,245,37,,,b,0,0.984485769455,,,2020_Feb_26_1123,59.9668081539,duckFrog,001,4,
frog,quackR.wav,20,landoltCTop.png,V2,duckFront.png,frogFront.png,HinCong,h,-20,landoltCR.png,,,,,3,6,246,42,,,h,0,2.09295525492,,,2020_Feb_26_1123,59.9668081539,duckFrog,001,4,
frog,wnR.wav,-20,landoltCR.png,V2,frogFront.png,duckFront.png,HcongWN,b,20,landoltCBottom.png,,,,,3,7,247,53,,,b,0,1.51789282997,,,2020_Feb_26_1123,59.9668081539,duckFrog,001,4,
frog,wnR.wav,20,landoltCBottom.png,V2,duckFront.png,frogFront.png,HinCongWN,b,-20,landoltCR.png,,,,,3,8,248,51,,,b,0,0.983897442726,,,2020_Feb_26_1123,59.9668081539,duckFrog,001,4,
duck,wnR.wav,20,landoltCBottom.png,V2,frogFront.png,duckFront.png,LinCongWN,b,-20,landoltCL.png,,,,,3,9,249,11,,,b,0,1.76821283571,,,2020_Feb_26_1123,59.9668081539,duckFrog,001,4,
frog,wnL.wav,20,landoltCBottom.png,V2,duckFront.png,frogFront.png,HcongWN,b,-20,landoltCR.png,,,,,3,10,250,49,,,b,0,1.45152884304,,,2020_Feb_26_1123,59.9668081539,duckFrog,001,4,
frog,quackR.wav,20,landoltCBottom.png,V2,duckFront.png,frogFront.png,HinCong,b,-20,landoltCL.png,,,,,3,11,251,34,,,b,0,1.38460695377,,,2020_Feb_26_1123,59.9668081539,duckFrog,001,4,
duck,wnL.wav,20,landoltCTop.png,V2,frogFront.png,duckFront.png,LcongWN,h,-20,landoltCR.png,,,,,3,12,252,1,,,h,0,2.23543662272,,,2020_Feb_26_1123,59.9668081539,duckFrog,001,4,
frog,wnL.wav,-20,landoltCR.png,V2,frogFront.png,duckFront.png,HinCongWN,b,20,landoltCBottom.png,,,,,3,13,253,71,,,b,0,1.81790170069,,,2020_Feb_26_1123,59.9668081539,duckFrog,001,4,
frog,quackR.wav,20,landoltCBottom.png,V2,duckFront.png,frogFront.png,HinCong,b,-20,landoltCL.png,,,,,3,14,254,50,,,b,0,1.16730692254,,,2020_Feb_26_1123,59.9668081539,duckFrog,001,4,
frog,quackR.wav,20,landoltCTop.png,V2,duckFront.png,frogFront.png,HinCong,h,-20,landoltCR.png,,,,,3,15,255,58,,,h,0,1.11778447521,,,2020_Feb_26_1123,59.9668081539,duckFrog,001,4,
frog,ribbitL.wav,20,landoltCBottom.png,V2,duckFront.png,frogFront.png,Hcong,b,-20,landoltCL.png,,,,,3,16,256,16,,,b,0,1.18445783768,,,2020_Feb_26_1123,59.9668081539,duckFrog,001,4,
frog,quackL.wav,-20,landoltCL.png,V2,frogFront.png,duckFront.png,HinCong,h,20,landoltCTop.png,,,,,3,17,257,30,,,s,0,1.33478392829,,,2020_Feb_26_1123,59.9668081539,duckFrog,001,4,
frog,wnR.wav,20,landoltCBottom.png,V2,duckFront.png,frogFront.png,HinCongWN,b,-20,landoltCR.png,,,,,3,18,258,67,,,b,0,2.66917783815,,,2020_Feb_26_1123,59.9668081539,duckFrog,001,4,
frog,wnR.wav,-20,landoltCR.png,V2,frogFront.png,duckFront.png,HcongWN,h,20,landoltCTop.png,,,,,3,19,259,29,,,h,0,2.51833123417,,,2020_Feb_26_1123,59.9668081539,duckFrog,001,4,
duck,wnL.wav,-20,landoltCL.png,V2,duckFront.png,frogFront.png,LinCongWN,h,20,landoltCTop.png,,,,,3,20,260,7,,,h,0,2.36896736015,,,2020_Feb_26_1123,59.9668081539,duckFrog,001,4,
duck,wnL.wav,-20,landoltCL.png,V2,duckFront.png,frogFront.png,LinCongWN,b,20,landoltCBottom.png,,,,,3,21,261,15,,,b,0,1.75176827918,,,2020_Feb_26_1123,59.9668081539,duckFrog,001,4,
duck,wnR.wav,20,landoltCTop.png,V2,frogFront.png,duckFront.png,LinCongWN,h,-20,landoltCR.png,,,,,3,22,262,3,,,h,0,1.78464492924,,,2020_Feb_26_1123,59.9668081539,duckFrog,001,4,
frog,ribbitL.wav,20,landoltCTop.png,V2,duckFront.png,frogFront.png,Hcong,h,-20,landoltCR.png,,,,,3,23,263,24,,,h,0,2.20198044337,,,2020_Feb_26_1123,59.9668081539,duckFrog,001,4,
frog,wnL.wav,20,landoltCTop.png,V2,duckFront.png,frogFront.png,HcongWN,h,-20,landoltCL.png,,,,,3,24,264,73,,,h,0,1.08444302871,,,2020_Feb_26_1123,59.9668081539,duckFrog,001,4,
frog,quackR.wav,20,landoltCTop.png,V2,duckFront.png,frogFront.png,HinCong,h,-20,landoltCR.png,,,,,3,25,265,26,,,h,0,1.85176879236,,,2020_Feb_26_1123,59.9668081539,duckFrog,001,4,
frog,ribbitL.wav,20,landoltCBottom.png,V2,duckFront.png,frogFront.png,Hcong,b,-20,landoltCL.png,,,,,3,26,266,32,,,b,0,1.43465797874,,,2020_Feb_26_1123,59.9668081539,duckFrog,001,4,
frog,ribbitL.wav,20,landoltCTop.png,V2,duckFront.png,frogFront.png,Hcong,h,-20,landoltCR.png,,,,,3,27,267,72,,,h,0,2.53551294026,,,2020_Feb_26_1123,59.9668081539,duckFrog,001,4,
duck,quackR.wav,-20,landoltCR.png,V2,duckFront.png,frogFront.png,Lcong,h,20,landoltCTop.png,,,,,3,28,268,4,,,h,0,1.60117899941,,,2020_Feb_26_1123,59.9668081539,duckFrog,001,4,
duck,ribbitR.wav,20,landoltCBottom.png,V2,frogFront.png,duckFront.png,LinCong,b,-20,landoltCR.png,,,,,3,29,269,10,,,b,0,1.4345216189,,,2020_Feb_26_1123,59.9668081539,duckFrog,001,4,
frog,quackR.wav,20,landoltCBottom.png,V2,duckFront.png,frogFront.png,HinCong,b,-20,landoltCL.png,,,,,3,30,270,66,,,s,0,1.73500518313,,,2020_Feb_26_1123,59.9668081539,duckFrog,001,4,
duck,quackL.wav,20,landoltCTop.png,V2,frogFront.png,duckFront.png,Lcong,h,-20,landoltCL.png,,,,,3,31,271,0,,,h,0,3.7200954079,,,2020_Feb_26_1123,59.9668081539,duckFrog,001,4,
frog,ribbitR.wav,-20,landoltCL.png,V2,frogFront.png,duckFront.png,Hcong,b,20,landoltCBottom.png,,,,,3,32,272,52,,,b,0,1.53449060803,,,2020_Feb_26_1123,59.9668081539,duckFrog,001,4,
frog,wnL.wav,-20,landoltCR.png,V2,frogFront.png,duckFront.png,HinCongWN,b,20,landoltCBottom.png,,,,,3,33,273,23,,,b,0,2.43551829201,,,2020_Feb_26_1123,59.9668081539,duckFrog,001,4,
frog,ribbitR.wav,-20,landoltCL.png,V2,frogFront.png,duckFront.png,Hcong,h,20,landoltCTop.png,,,,,3,34,274,44,,,h,0,1.85170867674,,,2020_Feb_26_1123,59.9668081539,duckFrog,001,4,
duck,wnL.wav,20,landoltCBottom.png,V2,frogFront.png,duckFront.png,LcongWN,b,-20,landoltCL.png,,,,,3,35,275,9,,,b,0,2.50216269634,,,2020_Feb_26_1123,59.9668081539,duckFrog,001,4,
frog,wnL.wav,20,landoltCTop.png,V2,duckFront.png,frogFront.png,HcongWN,h,-20,landoltCL.png,,,,,3,36,276,25,,,h,0,1.25116492355,,,2020_Feb_26_1123,59.9668081539,duckFrog,001,4,
frog,wnL.wav,-20,landoltCR.png,V2,frogFront.png,duckFront.png,HinCongWN,h,20,landoltCTop.png,,,,,3,37,277,79,,,h,0,2.33518384385,,,2020_Feb_26_1123,59.9668081539,duckFrog,001,4,
frog,wnL.wav,20,landoltCTop.png,V2,duckFront.png,frogFront.png,HcongWN,h,-20,landoltCL.png,,,,,3,38,278,57,,,h,0,2.01798080406,,,2020_Feb_26_1123,59.9668081539,duckFrog,001,4,
frog,wnR.wav,20,landoltCTop.png,V2,duckFront.png,frogFront.png,HinCongWN,h,-20,landoltCL.png,,,,,3,39,279,59,,,h,0,1.35147041357,,,2020_Feb_26_1123,59.9668081539,duckFrog,001,4,
frog,ribbitR.wav,-20,landoltCL.png,V2,frogFront.png,duckFront.png,Hcong,b,20,landoltCBottom.png,,,,,3,40,280,20,,,b,0,1.28454962398,,,2020_Feb_26_1123,59.9668081539,duckFrog,001,4,
frog,ribbitL.wav,20,landoltCTop.png,V2,duckFront.png,frogFront.png,Hcong,h,-20,landoltCR.png,,,,,3,41,281,56,,,h,0,1.46780661536,,,2020_Feb_26_1123,59.9668081539,duckFrog,001,4,
frog,wnR.wav,20,landoltCTop.png,V2,duckFront.png,frogFront.png,HinCongWN,h,-20,landoltCL.png,,,,,3,42,282,43,,,h,0,1.35151146815,,,2020_Feb_26_1123,59.9668081539,duckFrog,001,4,
frog,wnR.wav,-20,landoltCR.png,V2,frogFront.png,duckFront.png,HcongWN,h,20,landoltCTop.png,,,,,3,43,283,45,,,h,0,1.16760970003,,,2020_Feb_26_1123,59.9668081539,duckFrog,001,4,
frog,wnR.wav,20,landoltCTop.png,V2,duckFront.png,frogFront.png,HinCongWN,h,-20,landoltCL.png,,,,,3,44,284,27,,,h,0,1.00068546478,,,2020_Feb_26_1123,59.9668081539,duckFrog,001,4,
duck,quackL.wav,20,landoltCBottom.png,V2,frogFront.png,duckFront.png,Lcong,b,-20,landoltCR.png,,,,,3,45,285,8,,,b,0,1.56820227882,,,2020_Feb_26_1123,59.9668081539,duckFrog,001,4,
frog,wnR.wav,20,landoltCBottom.png,V2,duckFront.png,frogFront.png,HinCongWN,b,-20,landoltCR.png,,,,,3,46,286,35,,,b,0,0.934236802786,,,2020_Feb_26_1123,59.9668081539,duckFrog,001,4,
frog,wnL.wav,-20,landoltCR.png,V2,frogFront.png,duckFront.png,HinCongWN,h,20,landoltCTop.png,,,,,3,47,287,31,,,s,0,0.717438223859,,,2020_Feb_26_1123,59.9668081539,duckFrog,001,4,
frog,quackL.wav,-20,landoltCL.png,V2,frogFront.png,duckFront.png,HinCong,b,20,landoltCBottom.png,,,,,3,48,288,22,,,b,0,1.73492050808,,,2020_Feb_26_1123,59.9668081539,duckFrog,001,4,
frog,wnR.wav,20,landoltCBottom.png,V2,duckFront.png,frogFront.png,HinCongWN,b,-20,landoltCR.png,,,,,3,49,289,19,,,b,0,1.75137862728,,,2020_Feb_26_1123,59.9668081539,duckFrog,001,4,
duck,wnR.wav,-20,landoltCL.png,V2,duckFront.png,frogFront.png,LcongWN,h,20,landoltCTop.png,,,,,3,50,290,5,,,h,0,2.16839156974,,,2020_Feb_26_1123,59.9668081539,duckFrog,001,4,
frog,ribbitL.wav,20,landoltCBottom.png,V2,duckFront.png,frogFront.png,Hcong,b,-20,landoltCL.png,,,,,3,51,291,48,,,b,0,1.11770309917,,,2020_Feb_26_1123,59.9668081539,duckFrog,001,4,
frog,wnL.wav,-20,landoltCR.png,V2,frogFront.png,duckFront.png,HinCongWN,h,20,landoltCTop.png,,,,,3,52,292,47,,,h,0,1.40111272559,,,2020_Feb_26_1123,59.9668081539,duckFrog,001,4,
frog,wnL.wav,20,landoltCTop.png,V2,duckFront.png,frogFront.png,HcongWN,h,-20,landoltCL.png,,,,,3,53,293,41,,,h,0,0.933997806511,,,2020_Feb_26_1123,59.9668081539,duckFrog,001,4,
frog,ribbitR.wav,-20,landoltCL.png,V2,frogFront.png,duckFront.png,Hcong,h,20,landoltCTop.png,,,,,3,54,294,76,,,h,0,1.05115766569,,,2020_Feb_26_1123,59.9668081539,duckFrog,001,4,
frog,ribbitL.wav,20,landoltCBottom.png,V2,duckFront.png,frogFront.png,Hcong,b,-20,landoltCL.png,,,,,3,55,295,64,,,b,0,0.934049857853,,,2020_Feb_26_1123,59.9668081539,duckFrog,001,4,
frog,wnR.wav,-20,landoltCR.png,V2,frogFront.png,duckFront.png,HcongWN,h,20,landoltCTop.png,,,,,3,56,296,61,,,h,0,1.45098010465,,,2020_Feb_26_1123,59.9668081539,duckFrog,001,4,
frog,quackL.wav,-20,landoltCL.png,V2,frogFront.png,duckFront.png,HinCong,h,20,landoltCTop.png,,,,,3,57,297,78,,,s,0,1.26805154988,,,2020_Feb_26_1123,59.9668081539,duckFrog,001,4,
frog,ribbitR.wav,-20,landoltCL.png,V2,frogFront.png,duckFront.png,Hcong,b,20,landoltCBottom.png,,,,,3,58,298,68,,,s,0,0.800800270968,,,2020_Feb_26_1123,59.9668081539,duckFrog,001,4,
frog,wnR.wav,-20,landoltCR.png,V2,frogFront.png,duckFront.png,HcongWN,h,20,landoltCTop.png,,,,,3,59,299,77,,,h,0,1.60147957756,,,2020_Feb_26_1123,59.9668081539,duckFrog,001,4,
frog,quackL.wav,-20,landoltCL.png,V2,frogFront.png,duckFront.png,HinCong,b,20,landoltCBottom.png,,,,,3,60,300,38,,,b,0,1.6347370821,,,2020_Feb_26_1123,59.9668081539,duckFrog,001,4,
frog,wnL.wav,20,landoltCBottom.png,V2,duckFront.png,frogFront.png,HcongWN,b,-20,landoltCR.png,,,,,3,61,301,65,,,b,0,2.21848731487,,,2020_Feb_26_1123,59.9668081539,duckFrog,001,4,
frog,ribbitR.wav,-20,landoltCL.png,V2,frogFront.png,duckFront.png,Hcong,h,20,landoltCTop.png,,,,,3,62,302,60,,,h,0,1.43448899518,,,2020_Feb_26_1123,59.9668081539,duckFrog,001,4,
frog,quackR.wav,20,landoltCBottom.png,V2,duckFront.png,frogFront.png,HinCong,b,-20,landoltCL.png,,,,,3,63,303,18,,,b,0,1.16775155824,,,2020_Feb_26_1123,59.9668081539,duckFrog,001,4,
frog,wnL.wav,20,landoltCBottom.png,V2,duckFront.png,frogFront.png,HcongWN,b,-20,landoltCR.png,,,,,3,64,304,17,,,b,0,0.884304542837,,,2020_Feb_26_1123,59.9668081539,duckFrog,001,4,
duck,ribbitR.wav,20,landoltCTop.png,V2,frogFront.png,duckFront.png,LinCong,h,-20,landoltCL.png,,,,,3,65,305,2,,,b,0,1.75151938583,,,2020_Feb_26_1123,59.9668081539,duckFrog,001,4,
frog,wnR.wav,-20,landoltCR.png,V2,frogFront.png,duckFront.png,HcongWN,b,20,landoltCBottom.png,,,,,3,66,306,21,,,b,0,1.61786511813,,,2020_Feb_26_1123,59.9668081539,duckFrog,001,4,
frog,wnL.wav,-20,landoltCR.png,V2,frogFront.png,duckFront.png,HinCongWN,b,20,landoltCBottom.png,,,,,3,67,307,39,,,b,0,1.75159123134,,,2020_Feb_26_1123,59.9668081539,duckFrog,001,4,
frog,quackL.wav,-20,landoltCL.png,V2,frogFront.png,duckFront.png,HinCong,b,20,landoltCBottom.png,,,,,3,68,308,54,,,b,0,1.35129739788,,,2020_Feb_26_1123,59.9668081539,duckFrog,001,4,
frog,quackL.wav,-20,landoltCL.png,V2,frogFront.png,duckFront.png,HinCong,h,20,landoltCTop.png,,,,,3,69,309,46,,,h,0,1.93503003582,,,2020_Feb_26_1123,59.9668081539,duckFrog,001,4,
frog,wnL.wav,-20,landoltCR.png,V2,frogFront.png,duckFront.png,HinCongWN,b,20,landoltCBottom.png,,,,,3,70,310,55,,,b,0,1.80183799865,,,2020_Feb_26_1123,59.9668081539,duckFrog,001,4,
frog,wnR.wav,-20,landoltCR.png,V2,frogFront.png,duckFront.png,HcongWN,b,20,landoltCBottom.png,,,,,3,71,311,69,,,b,0,1.1513319277,,,2020_Feb_26_1123,59.9668081539,duckFrog,001,4,
frog,quackR.wav,20,landoltCTop.png,V2,duckFront.png,frogFront.png,HinCong,h,-20,landoltCR.png,,,,,3,72,312,74,,,h,0,1.33430190361,,,2020_Feb_26_1123,59.9668081539,duckFrog,001,4,
frog,ribbitR.wav,-20,landoltCL.png,V2,frogFront.png,duckFront.png,Hcong,b,20,landoltCBottom.png,,,,,3,73,313,36,,,b,0,1.2341694293,,,2020_Feb_26_1123,59.9668081539,duckFrog,001,4,
frog,wnL.wav,-20,landoltCR.png,V2,frogFront.png,duckFront.png,HinCongWN,h,20,landoltCTop.png,,,,,3,74,314,63,,,h,0,1.85166249033,,,2020_Feb_26_1123,59.9668081539,duckFrog,001,4,
frog,wnL.wav,20,landoltCBottom.png,V2,duckFront.png,frogFront.png,HcongWN,b,-20,landoltCR.png,,,,,3,75,315,33,,,b,0,0.8007493193,,,2020_Feb_26_1123,59.9668081539,duckFrog,001,4,
frog,quackL.wav,-20,landoltCL.png,V2,frogFront.png,duckFront.png,HinCong,b,20,landoltCBottom.png,,,,,3,76,316,70,,,b,0,0.934239735259,,,2020_Feb_26_1123,59.9668081539,duckFrog,001,4,
frog,wnR.wav,20,landoltCTop.png,V2,duckFront.png,frogFront.png,HinCongWN,h,-20,landoltCL.png,,,,,3,77,317,75,,,h,0,1.10102834378,,,2020_Feb_26_1123,59.9668081539,duckFrog,001,4,
duck,wnR.wav,-20,landoltCL.png,V2,duckFront.png,frogFront.png,LcongWN,b,20,landoltCBottom.png,,,,,3,78,318,13,,,b,0,2.25174481943,,,2020_Feb_26_1123,59.9668081539,duckFrog,001,4,
frog,ribbitR.wav,-20,landoltCL.png,V2,frogFront.png,duckFront.png,Hcong,h,20,landoltCTop.png,,,,,3,79,319,28,,,h,0,1.06771438918,,,2020_Feb_26_1123,59.9668081539,duckFrog,001,4,
frog,wnL.wav,-20,landoltCR.png,V2,frogFront.png,duckFront.png,HinCongWN,h,20,landoltCTop.png,,,,,4,0,320,63,,,h,0,1.55162979331,,,2020_Feb_26_1123,59.9668081539,duckFrog,001,4,
frog,wnL.wav,-20,landoltCR.png,V2,frogFront.png,duckFront.png,HinCongWN,h,20,landoltCTop.png,,,,,4,1,321,79,,,h,0,1.01784884292,,,2020_Feb_26_1123,59.9668081539,duckFrog,001,4,
duck,quackR.wav,-20,landoltCR.png,V2,duckFront.png,frogFront.png,Lcong,b,20,landoltCBottom.png,,,,,4,2,322,12,,,b,0,1.38466706939,,,2020_Feb_26_1123,59.9668081539,duckFrog,001,4,
frog,quackL.wav,-20,landoltCL.png,V2,frogFront.png,duckFront.png,HinCong,b,20,landoltCBottom.png,,,,,4,3,323,38,,,b,0,1.10108919253,,,2020_Feb_26_1123,59.9668081539,duckFrog,001,4,
frog,quackR.wav,20,landoltCBottom.png,V2,duckFront.png,frogFront.png,HinCong,b,-20,landoltCL.png,,,,,4,4,324,50,,,b,0,0.817281483367,,,2020_Feb_26_1123,59.9668081539,duckFrog,001,4,
frog,quackR.wav,20,landoltCBottom.png,V2,duckFront.png,frogFront.png,HinCong,b,-20,landoltCL.png,,,,,4,5,325,66,,,b,0,0.76763000738,,,2020_Feb_26_1123,59.9668081539,duckFrog,001,4,
frog,quackL.wav,-20,landoltCL.png,V2,frogFront.png,duckFront.png,HinCong,b,20,landoltCBottom.png,,,,,4,6,326,54,,,b,0,0.950737442792,,,2020_Feb_26_1123,59.9668081539,duckFrog,001,4,
frog,quackR.wav,20,landoltCTop.png,V2,duckFront.png,frogFront.png,HinCong,h,-20,landoltCR.png,,,,,4,7,327,58,,,s,0,4.62053806419,,,2020_Feb_26_1123,59.9668081539,duckFrog,001,4,
frog,quackR.wav,20,landoltCTop.png,V2,duckFront.png,frogFront.png,HinCong,h,-20,landoltCR.png,,,,,4,8,328,42,,,s,0,1.13441561013,,,2020_Feb_26_1123,59.9668081539,duckFrog,001,4,
frog,ribbitR.wav,-20,landoltCL.png,V2,frogFront.png,duckFront.png,Hcong,h,20,landoltCTop.png,,,,,4,9,329,28,,,h,0,6.1885042792,,,2020_Feb_26_1123,59.9668081539,duckFrog,001,4,
frog,ribbitL.wav,20,landoltCTop.png,V2,duckFront.png,frogFront.png,Hcong,h,-20,landoltCR.png,,,,,4,10,330,56,,,h,0,1.38441707636,,,2020_Feb_26_1123,59.9668081539,duckFrog,001,4,
frog,ribbitL.wav,20,landoltCTop.png,V2,duckFront.png,frogFront.png,Hcong,h,-20,landoltCR.png,,,,,4,11,331,40,,,h,0,1.10107123115,,,2020_Feb_26_1123,59.9668081539,duckFrog,001,4,
frog,quackL.wav,-20,landoltCL.png,V2,frogFront.png,duckFront.png,HinCong,h,20,landoltCTop.png,,,,,4,12,332,46,,,h,0,1.45114542263,,,2020_Feb_26_1123,59.9668081539,duckFrog,001,4,
frog,quackR.wav,20,landoltCBottom.png,V2,duckFront.png,frogFront.png,HinCong,b,-20,landoltCL.png,,,,,4,13,333,34,,,b,0,1.18414772903,,,2020_Feb_26_1123,59.9668081539,duckFrog,001,4,
frog,wnL.wav,20,landoltCBottom.png,V2,duckFront.png,frogFront.png,HcongWN,b,-20,landoltCR.png,,,,,4,14,334,33,,,b,0,0.917565712967,,,2020_Feb_26_1123,59.9668081539,duckFrog,001,4,
frog,wnR.wav,20,landoltCBottom.png,V2,duckFront.png,frogFront.png,HinCongWN,b,-20,landoltCR.png,,,,,4,15,335,67,,,b,0,0.917654420191,,,2020_Feb_26_1123,59.9668081539,duckFrog,001,4,
frog,wnL.wav,20,landoltCTop.png,V2,duckFront.png,frogFront.png,HcongWN,h,-20,landoltCL.png,,,,,4,16,336,57,,,h,0,0.984140837725,,,2020_Feb_26_1123,59.9668081539,duckFrog,001,4,
frog,wnL.wav,-20,landoltCR.png,V2,frogFront.png,duckFront.png,HinCongWN,b,20,landoltCBottom.png,,,,,4,17,337,71,,,b,0,1.31788153996,,,2020_Feb_26_1123,59.9668081539,duckFrog,001,4,
frog,ribbitR.wav,-20,landoltCL.png,V2,frogFront.png,duckFront.png,Hcong,b,20,landoltCBottom.png,,,,,4,18,338,20,,,b,0,1.51822236624,,,2020_Feb_26_1123,59.9668081539,duckFrog,001,4,
frog,ribbitL.wav,20,landoltCTop.png,V2,duckFront.png,frogFront.png,Hcong,h,-20,landoltCR.png,,,,,4,19,339,72,,,h,0,1.16755324998,,,2020_Feb_26_1123,59.9668081539,duckFrog,001,4,
frog,wnL.wav,-20,landoltCR.png,V2,frogFront.png,duckFront.png,HinCongWN,b,20,landoltCBottom.png,,,,,4,20,340,23,,,b,0,1.41794106908,,,2020_Feb_26_1123,59.9668081539,duckFrog,001,4,
frog,wnL.wav,-20,landoltCR.png,V2,frogFront.png,duckFront.png,HinCongWN,h,20,landoltCTop.png,,,,,4,21,341,47,,,h,0,1.15109109863,,,2020_Feb_26_1123,59.9668081539,duckFrog,001,4,
frog,ribbitR.wav,-20,landoltCL.png,V2,frogFront.png,duckFront.png,Hcong,b,20,landoltCBottom.png,,,,,4,22,342,36,,,b,0,1.03431685921,,,2020_Feb_26_1123,59.9668081539,duckFrog,001,4,
frog,ribbitR.wav,-20,landoltCL.png,V2,frogFront.png,duckFront.png,Hcong,h,20,landoltCTop.png,,,,,4,23,343,76,,,h,0,1.05102937015,,,2020_Feb_26_1123,59.9668081539,duckFrog,001,4,
frog,ribbitL.wav,20,landoltCTop.png,V2,duckFront.png,frogFront.png,Hcong,h,-20,landoltCR.png,,,,,4,24,344,24,,,h,0,0.850610466863,,,2020_Feb_26_1123,59.9668081539,duckFrog,001,4,
duck,ribbitR.wav,20,landoltCTop.png,V2,frogFront.png,duckFront.png,LinCong,h,-20,landoltCL.png,,,,,4,25,345,2,,,h,0,3.22272583314,,,2020_Feb_26_1123,59.9668081539,duckFrog,001,4,
duck,wnR.wav,20,landoltCBottom.png,V2,frogFront.png,duckFront.png,LinCongWN,b,-20,landoltCL.png,,,,,4,26,346,11,,,b,0,1.10127173876,,,2020_Feb_26_1123,59.9668081539,duckFrog,001,4,
frog,wnL.wav,20,landoltCTop.png,V2,duckFront.png,frogFront.png,HcongWN,h,-20,landoltCL.png,,,,,4,27,347,73,,,h,0,0.717437857311,,,2020_Feb_26_1123,59.9668081539,duckFrog,001,4,
frog,quackL.wav,-20,landoltCL.png,V2,frogFront.png,duckFront.png,HinCong,b,20,landoltCBottom.png,,,,,4,28,348,70,,,b,0,1.05079550571,,,2020_Feb_26_1123,59.9668081539,duckFrog,001,4,
frog,wnR.wav,-20,landoltCR.png,V2,frogFront.png,duckFront.png,HcongWN,b,20,landoltCBottom.png,,,,,4,29,349,53,,,b,0,0.834191202885,,,2020_Feb_26_1123,59.9668081539,duckFrog,001,4,
frog,wnL.wav,20,landoltCBottom.png,V2,duckFront.png,frogFront.png,HcongWN,b,-20,landoltCR.png,,,,,4,30,350,65,,,b,0,0.767156780086,,,2020_Feb_26_1123,59.9668081539,duckFrog,001,4,
duck,wnR.wav,20,landoltCTop.png,V2,frogFront.png,duckFront.png,LinCongWN,h,-20,landoltCR.png,,,,,4,31,351,3,,,h,0,1.68489550878,,,2020_Feb_26_1123,59.9668081539,duckFrog,001,4,
frog,ribbitR.wav,-20,landoltCL.png,V2,frogFront.png,duckFront.png,Hcong,b,20,landoltCBottom.png,,,,,4,32,352,68,,,s,0,2.45213952984,,,2020_Feb_26_1123,59.9668081539,duckFrog,001,4,
duck,ribbitL.wav,-20,landoltCR.png,V2,duckFront.png,frogFront.png,LinCong,b,20,landoltCBottom.png,,,,,4,33,353,14,,,b,0,1.46803571456,,,2020_Feb_26_1123,59.9668081539,duckFrog,001,4,
frog,wnR.wav,20,landoltCBottom.png,V2,duckFront.png,frogFront.png,HinCongWN,b,-20,landoltCR.png,,,,,4,34,354,35,,,b,0,1.06751791373,,,2020_Feb_26_1123,59.9668081539,duckFrog,001,4,
frog,wnR.wav,-20,landoltCR.png,V2,frogFront.png,duckFront.png,HcongWN,h,20,landoltCTop.png,,,,,4,35,355,29,,,s,0,0.850974459652,,,2020_Feb_26_1123,59.9668081539,duckFrog,001,4,
frog,wnL.wav,-20,landoltCR.png,V2,frogFront.png,duckFront.png,HinCongWN,h,20,landoltCTop.png,,,,,4,36,356,31,,,h,0,1.71799099438,,,2020_Feb_26_1123,59.9668081539,duckFrog,001,4,
duck,ribbitL.wav,-20,landoltCR.png,V2,duckFront.png,frogFront.png,LinCong,h,20,landoltCTop.png,,,,,4,37,357,6,,,h,0,1.73498942112,,,2020_Feb_26_1123,59.9668081539,duckFrog,001,4,
frog,wnR.wav,-20,landoltCR.png,V2,frogFront.png,duckFront.png,HcongWN,b,20,landoltCBottom.png,,,,,4,38,358,37,,,b,0,0.951073577133,,,2020_Feb_26_1123,59.9668081539,duckFrog,001,4,
frog,wnL.wav,20,landoltCTop.png,V2,duckFront.png,frogFront.png,HcongWN,h,-20,landoltCL.png,,,,,4,39,359,25,,,h,0,1.01738331337,,,2020_Feb_26_1123,59.9668081539,duckFrog,001,4,
frog,wnL.wav,20,landoltCTop.png,V2,duckFront.png,frogFront.png,HcongWN,h,-20,landoltCL.png,,,,,4,40,360,41,,,h,0,0.884279250298,,,2020_Feb_26_1123,59.9668081539,duckFrog,001,4,
frog,wnR.wav,-20,landoltCR.png,V2,frogFront.png,duckFront.png,HcongWN,h,20,landoltCTop.png,,,,,4,41,361,77,,,h,0,0.800614425694,,,2020_Feb_26_1123,59.9668081539,duckFrog,001,4,
duck,wnR.wav,-20,landoltCL.png,V2,duckFront.png,frogFront.png,LcongWN,h,20,landoltCTop.png,,,,,4,42,362,5,,,h,0,1.58494448102,,,2020_Feb_26_1123,59.9668081539,duckFrog,001,4,
frog,ribbitL.wav,20,landoltCBottom.png,V2,duckFront.png,frogFront.png,Hcong,b,-20,landoltCL.png,,,,,4,43,363,32,,,b,0,0.783897516056,,,2020_Feb_26_1123,59.9668081539,duckFrog,001,4,
frog,wnR.wav,20,landoltCBottom.png,V2,duckFront.png,frogFront.png,HinCongWN,b,-20,landoltCR.png,,,,,4,44,364,19,,,b,0,1.00097504616,,,2020_Feb_26_1123,59.9668081539,duckFrog,001,4,
duck,wnR.wav,-20,landoltCL.png,V2,duckFront.png,frogFront.png,LcongWN,b,20,landoltCBottom.png,,,,,4,45,365,13,,,b,0,1.5344917077,,,2020_Feb_26_1123,59.9668081539,duckFrog,001,4,
duck,wnL.wav,-20,landoltCL.png,V2,duckFront.png,frogFront.png,LinCongWN,b,20,landoltCBottom.png,,,,,4,46,366,15,,,b,0,1.11786841715,,,2020_Feb_26_1123,59.9668081539,duckFrog,001,4,
frog,quackL.wav,-20,landoltCL.png,V2,frogFront.png,duckFront.png,HinCong,h,20,landoltCTop.png,,,,,4,47,367,78,,,h,0,1.13433936592,,,2020_Feb_26_1123,59.9668081539,duckFrog,001,4,
duck,wnL.wav,20,landoltCTop.png,V2,frogFront.png,duckFront.png,LcongWN,h,-20,landoltCR.png,,,,,4,48,368,1,,,h,0,1.60101074896,,,2020_Feb_26_1123,59.9668081539,duckFrog,001,4,
frog,wnR.wav,-20,landoltCR.png,V2,frogFront.png,duckFront.png,HcongWN,h,20,landoltCTop.png,,,,,4,49,369,61,,,h,0,1.067263522,,,2020_Feb_26_1123,59.9668081539,duckFrog,001,4,
frog,quackR.wav,20,landoltCTop.png,V2,duckFront.png,frogFront.png,HinCong,h,-20,landoltCR.png,,,,,4,50,370,74,,,h,0,1.6512600822,,,2020_Feb_26_1123,59.9668081539,duckFrog,001,4,
frog,ribbitR.wav,-20,landoltCL.png,V2,frogFront.png,duckFront.png,Hcong,h,20,landoltCTop.png,,,,,4,51,371,60,,,h,0,0.833865698747,,,2020_Feb_26_1123,59.9668081539,duckFrog,001,4,
frog,ribbitR.wav,-20,landoltCL.png,V2,frogFront.png,duckFront.png,Hcong,b,20,landoltCBottom.png,,,,,4,52,372,52,,,b,0,1.01770478535,,,2020_Feb_26_1123,59.9668081539,duckFrog,001,4,
duck,quackL.wav,20,landoltCTop.png,V2,frogFront.png,duckFront.png,Lcong,h,-20,landoltCL.png,,,,,4,53,373,0,,,h,0,1.38454793782,,,2020_Feb_26_1123,59.9668081539,duckFrog,001,4,
frog,wnR.wav,20,landoltCBottom.png,V2,duckFront.png,frogFront.png,HinCongWN,b,-20,landoltCR.png,,,,,4,54,374,51,,,b,0,0.900970867384,,,2020_Feb_26_1123,59.9668081539,duckFrog,001,4,
frog,wnR.wav,20,landoltCTop.png,V2,duckFront.png,frogFront.png,HinCongWN,h,-20,landoltCL.png,,,,,4,55,375,75,,,h,0,1.11772802517,,,2020_Feb_26_1123,59.9668081539,duckFrog,001,4,
frog,wnR.wav,20,landoltCTop.png,V2,duckFront.png,frogFront.png,HinCongWN,h,-20,landoltCL.png,,,,,4,56,376,27,,,h,0,1.05103083637,,,2020_Feb_26_1123,59.9668081539,duckFrog,001,4,
frog,wnL.wav,20,landoltCBottom.png,V2,duckFront.png,frogFront.png,HcongWN,b,-20,landoltCR.png,,,,,4,57,377,49,,,b,0,0.984494933422,,,2020_Feb_26_1123,59.9668081539,duckFrog,001,4,
duck,quackL.wav,20,landoltCBottom.png,V2,frogFront.png,duckFront.png,Lcong,b,-20,landoltCR.png,,,,,4,58,378,8,,,b,0,1.58482534943,,,2020_Feb_26_1123,59.9668081539,duckFrog,001,4,
frog,quackL.wav,-20,landoltCL.png,V2,frogFront.png,duckFront.png,HinCong,h,20,landoltCTop.png,,,,,4,59,379,62,,,h,0,1.5178418783,,,2020_Feb_26_1123,59.9668081539,duckFrog,001,4,
duck,ribbitR.wav,20,landoltCBottom.png,V2,frogFront.png,duckFront.png,LinCong,b,-20,landoltCR.png,,,,,4,60,380,10,,,b,0,1.85119732734,,,2020_Feb_26_1123,59.9668081539,duckFrog,001,4,
frog,ribbitL.wav,20,landoltCBottom.png,V2,duckFront.png,frogFront.png,Hcong,b,-20,landoltCL.png,,,,,4,61,381,16,,,b,0,0.851032009377,,,2020_Feb_26_1123,59.9668081539,duckFrog,001,4,
frog,ribbitR.wav,-20,landoltCL.png,V2,frogFront.png,duckFront.png,Hcong,h,20,landoltCTop.png,,,,,4,62,382,44,,,h,0,0.883998832884,,,2020_Feb_26_1123,59.9668081539,duckFrog,001,4,
frog,quackL.wav,-20,landoltCL.png,V2,frogFront.png,duckFront.png,HinCong,h,20,landoltCTop.png,,,,,4,63,383,30,,,h,0,2.03534982164,,,2020_Feb_26_1123,59.9668081539,duckFrog,001,4,
frog,quackR.wav,20,landoltCBottom.png,V2,duckFront.png,frogFront.png,HinCong,b,-20,landoltCL.png,,,,,4,64,384,18,,,b,0,0.934164590712,,,2020_Feb_26_1123,59.9668081539,duckFrog,001,4,
frog,ribbitL.wav,20,landoltCBottom.png,V2,duckFront.png,frogFront.png,Hcong,b,-20,landoltCL.png,,,,,4,65,385,48,,,b,0,0.967628101265,,,2020_Feb_26_1123,59.9668081539,duckFrog,001,4,
frog,ribbitL.wav,20,landoltCBottom.png,V2,duckFront.png,frogFront.png,Hcong,b,-20,landoltCL.png,,,,,4,66,386,64,,,b,0,0.867579568905,,,2020_Feb_26_1123,59.9668081539,duckFrog,001,4,
frog,wnR.wav,-20,landoltCR.png,V2,frogFront.png,duckFront.png,HcongWN,h,20,landoltCTop.png,,,,,4,67,387,45,,,h,0,1.45112856093,,,2020_Feb_26_1123,59.9668081539,duckFrog,001,4,
frog,wnL.wav,-20,landoltCR.png,V2,frogFront.png,duckFront.png,HinCongWN,b,20,landoltCBottom.png,,,,,4,68,388,39,,,b,0,1.33463913763,,,2020_Feb_26_1123,59.9668081539,duckFrog,001,4,
frog,wnL.wav,20,landoltCBottom.png,V2,duckFront.png,frogFront.png,HcongWN,b,-20,landoltCR.png,,,,,4,69,389,17,,,b,0,0.767187937585,,,2020_Feb_26_1123,59.9668081539,duckFrog,001,4,
frog,wnR.wav,20,landoltCTop.png,V2,duckFront.png,frogFront.png,HinCongWN,h,-20,landoltCL.png,,,,,4,70,390,43,,,h,0,1.2514273796,,,2020_Feb_26_1123,59.9668081539,duckFrog,001,4,
frog,wnR.wav,-20,landoltCR.png,V2,frogFront.png,duckFront.png,HcongWN,b,20,landoltCBottom.png,,,,,4,71,391,69,,,b,0,0.867360733348,,,2020_Feb_26_1123,59.9668081539,duckFrog,001,4,
duck,quackR.wav,-20,landoltCR.png,V2,duckFront.png,frogFront.png,Lcong,h,20,landoltCTop.png,,,,,4,72,392,4,,,h,0,1.56820924344,,,2020_Feb_26_1123,59.9668081539,duckFrog,001,4,
duck,wnL.wav,20,landoltCBottom.png,V2,frogFront.png,duckFront.png,LcongWN,b,-20,landoltCL.png,,,,,4,73,393,9,,,b,0,1.16748946877,,,2020_Feb_26_1123,59.9668081539,duckFrog,001,4,
duck,wnL.wav,-20,landoltCL.png,V2,duckFront.png,frogFront.png,LinCongWN,h,20,landoltCTop.png,,,,,4,74,394,7,,,h,0,1.36768733714,,,2020_Feb_26_1123,59.9668081539,duckFrog,001,4,
frog,wnR.wav,20,landoltCTop.png,V2,duckFront.png,frogFront.png,HinCongWN,h,-20,landoltCL.png,,,,,4,75,395,59,,,h,0,1.90134585692,,,2020_Feb_26_1123,59.9668081539,duckFrog,001,4,
frog,quackR.wav,20,landoltCTop.png,V2,duckFront.png,frogFront.png,HinCong,h,-20,landoltCR.png,,,,,4,76,396,26,,,b,0,1.58486457122,,,2020_Feb_26_1123,59.9668081539,duckFrog,001,4,
frog,wnR.wav,-20,landoltCR.png,V2,frogFront.png,duckFront.png,HcongWN,b,20,landoltCBottom.png,,,,,4,77,397,21,,,b,0,1.11744907401,,,2020_Feb_26_1123,59.9668081539,duckFrog,001,4,
frog,quackL.wav,-20,landoltCL.png,V2,frogFront.png,duckFront.png,HinCong,b,20,landoltCBottom.png,,,,,4,78,398,22,,,b,0,1.01765529993,,,2020_Feb_26_1123,59.9668081539,duckFrog,001,4,
frog,wnL.wav,-20,landoltCR.png,V2,frogFront.png,duckFront.png,HinCongWN,b,20,landoltCBottom.png,,,,,4,79,399,55,,,b,0,0.900890224468,,,2020_Feb_26_1123,59.9668081539,duckFrog,001,4,
frog,ribbitR.wav,-20,landoltCL.png,V2,frogFront.png,duckFront.png,Hcong,b,20,landoltCBottom.png,,,,,5,0,400,20,,,b,0,0.984446547678,,,2020_Feb_26_1123,59.9668081539,duckFrog,001,4,
frog,quackR.wav,20,landoltCBottom.png,V2,duckFront.png,frogFront.png,HinCong,b,-20,landoltCL.png,,,,,5,1,401,18,,,b,0,1.51782538317,,,2020_Feb_26_1123,59.9668081539,duckFrog,001,4,
duck,wnL.wav,20,landoltCBottom.png,V2,frogFront.png,duckFront.png,LcongWN,b,-20,landoltCL.png,,,,,5,2,402,9,,,b,0,2.0027480906,,,2020_Feb_26_1123,59.9668081539,duckFrog,001,4,
frog,wnL.wav,20,landoltCBottom.png,V2,duckFront.png,frogFront.png,HcongWN,b,-20,landoltCR.png,,,,,5,3,403,65,,,b,0,0.900951073214,,,2020_Feb_26_1123,59.9668081539,duckFrog,001,4,
frog,wnR.wav,20,landoltCBottom.png,V2,duckFront.png,frogFront.png,HinCongWN,b,-20,landoltCR.png,,,,,5,4,404,67,,,b,0,0.851038240871,,,2020_Feb_26_1123,59.9668081539,duckFrog,001,4,
duck,quackR.wav,-20,landoltCR.png,V2,duckFront.png,frogFront.png,Lcong,h,20,landoltCTop.png,,,,,5,5,405,4,,,h,0,1.31771182329,,,2020_Feb_26_1123,59.9668081539,duckFrog,001,4,
duck,quackR.wav,-20,landoltCR.png,V2,duckFront.png,frogFront.png,Lcong,b,20,landoltCBottom.png,,,,,5,6,406,12,,,b,0,1.60162143577,,,2020_Feb_26_1123,59.9668081539,duckFrog,001,4,
frog,ribbitL.wav,20,landoltCTop.png,V2,duckFront.png,frogFront.png,Hcong,h,-20,landoltCR.png,,,,,5,7,407,40,,,h,0,1.11754987764,,,2020_Feb_26_1123,59.9668081539,duckFrog,001,4,
frog,quackL.wav,-20,landoltCL.png,V2,frogFront.png,duckFront.png,HinCong,h,20,landoltCTop.png,,,,,5,8,408,78,,,h,0,1.11740618663,,,2020_Feb_26_1123,59.9668081539,duckFrog,001,4,
frog,wnR.wav,20,landoltCTop.png,V2,duckFront.png,frogFront.png,HinCongWN,h,-20,landoltCL.png,,,,,5,9,409,75,,,h,0,1.10087109011,,,2020_Feb_26_1123,59.9668081539,duckFrog,001,4,
frog,wnL.wav,-20,landoltCR.png,V2,frogFront.png,duckFront.png,HinCongWN,h,20,landoltCTop.png,,,,,5,10,410,63,,,h,0,1.26761864407,,,2020_Feb_26_1123,59.9668081539,duckFrog,001,4,
frog,ribbitL.wav,20,landoltCTop.png,V2,duckFront.png,frogFront.png,Hcong,h,-20,landoltCR.png,,,,,5,11,411,24,,,h,0,0.867461536996,,,2020_Feb_26_1123,59.9668081539,duckFrog,001,4,
frog,quackR.wav,20,landoltCTop.png,V2,duckFront.png,frogFront.png,HinCong,h,-20,landoltCR.png,,,,,5,12,412,26,,,h,0,1.48473026411,,,2020_Feb_26_1123,59.9668081539,duckFrog,001,4,
duck,ribbitR.wav,20,landoltCBottom.png,V2,frogFront.png,duckFront.png,LinCong,b,-20,landoltCR.png,,,,,5,13,413,10,,,b,0,1.30143698343,,,2020_Feb_26_1123,59.9668081539,duckFrog,001,4,
duck,quackL.wav,20,landoltCBottom.png,V2,frogFront.png,duckFront.png,Lcong,b,-20,landoltCR.png,,,,,5,14,414,8,,,b,0,0.884268620081,,,2020_Feb_26_1123,59.9668081539,duckFrog,001,4,
frog,ribbitR.wav,-20,landoltCL.png,V2,frogFront.png,duckFront.png,Hcong,h,20,landoltCTop.png,,,,,5,15,415,76,,,h,0,1.56784415097,,,2020_Feb_26_1123,59.9668081539,duckFrog,001,4,
frog,quackR.wav,20,landoltCBottom.png,V2,duckFront.png,frogFront.png,HinCong,b,-20,landoltCL.png,,,,,5,16,416,34,,,b,0,0.984048831495,,,2020_Feb_26_1123,59.9668081539,duckFrog,001,4,
duck,quackL.wav,20,landoltCTop.png,V2,frogFront.png,duckFront.png,Lcong,h,-20,landoltCL.png,,,,,5,17,417,0,,,h,0,1.23451399448,,,2020_Feb_26_1123,59.9668081539,duckFrog,001,4,
frog,quackL.wav,-20,landoltCL.png,V2,frogFront.png,duckFront.png,HinCong,h,20,landoltCTop.png,,,,,5,18,418,62,,,h,0,1.75119351513,,,2020_Feb_26_1123,59.9668081539,duckFrog,001,4,
frog,wnR.wav,-20,landoltCR.png,V2,frogFront.png,duckFront.png,HcongWN,b,20,landoltCBottom.png,,,,,5,19,419,69,,,b,0,1.08435725397,,,2020_Feb_26_1123,59.9668081539,duckFrog,001,4,
frog,wnR.wav,-20,landoltCR.png,V2,frogFront.png,duckFront.png,HcongWN,b,20,landoltCBottom.png,,,,,5,20,420,21,,,b,0,0.891142328881,,,2020_Feb_26_1123,59.9668081539,duckFrog,001,4,
frog,ribbitR.wav,-20,landoltCL.png,V2,frogFront.png,duckFront.png,Hcong,b,20,landoltCBottom.png,,,,,5,21,421,36,,,b,0,1.01784334454,,,2020_Feb_26_1123,59.9668081539,duckFrog,001,4,
frog,quackR.wav,20,landoltCTop.png,V2,duckFront.png,frogFront.png,HinCong,h,-20,landoltCR.png,,,,,5,22,422,42,,,h,0,1.11749232793,,,2020_Feb_26_1123,59.9668081539,duckFrog,001,4,
frog,quackL.wav,-20,landoltCL.png,V2,frogFront.png,duckFront.png,HinCong,b,20,landoltCBottom.png,,,,,5,23,423,54,,,s,0,0.0502522657043,,,2020_Feb_26_1123,59.9668081539,duckFrog,001,4,
frog,wnL.wav,-20,landoltCR.png,V2,frogFront.png,duckFront.png,HinCongWN,h,20,landoltCTop.png,,,,,5,24,424,31,,,h,0,1.13411979725,,,2020_Feb_26_1123,59.9668081539,duckFrog,001,4,
frog,wnL.wav,-20,landoltCR.png,V2,frogFront.png,duckFront.png,HinCongWN,b,20,landoltCBottom.png,,,,,5,25,425,55,,,b,0,1.3012295112,,,2020_Feb_26_1123,59.9668081539,duckFrog,001,4,
duck,ribbitR.wav,20,landoltCTop.png,V2,frogFront.png,duckFront.png,LinCong,h,-20,landoltCL.png,,,,,5,26,426,2,,,h,0,2.03497519864,,,2020_Feb_26_1123,59.9668081539,duckFrog,001,4,
frog,wnL.wav,-20,landoltCR.png,V2,frogFront.png,duckFront.png,HinCongWN,h,20,landoltCTop.png,,,,,5,27,427,79,,,h,0,1.78467681985,,,2020_Feb_26_1123,59.9668081539,duckFrog,001,4,
frog,wnR.wav,20,landoltCBottom.png,V2,duckFront.png,frogFront.png,HinCongWN,b,-20,landoltCR.png,,,,,5,28,428,19,,,b,0,1.11771666186,,,2020_Feb_26_1123,59.9668081539,duckFrog,001,4,
frog,ribbitR.wav,-20,landoltCL.png,V2,frogFront.png,duckFront.png,Hcong,b,20,landoltCBottom.png,,,,,5,29,429,68,,,b,0,1.0340782295,,,2020_Feb_26_1123,59.9668081539,duckFrog,001,4,
duck,ribbitL.wav,-20,landoltCR.png,V2,duckFront.png,frogFront.png,LinCong,h,20,landoltCTop.png,,,,,5,30,430,6,,,h,0,1.63484081822,,,2020_Feb_26_1123,59.9668081539,duckFrog,001,4,
frog,wnR.wav,-20,landoltCR.png,V2,frogFront.png,duckFront.png,HcongWN,h,20,landoltCTop.png,,,,,5,31,431,45,,,h,0,0.884241861291,,,2020_Feb_26_1123,59.9668081539,duckFrog,001,4,
frog,wnL.wav,20,landoltCBottom.png,V2,duckFront.png,frogFront.png,HcongWN,b,-20,landoltCR.png,,,,,5,32,432,49,,,b,0,1.00096148347,,,2020_Feb_26_1123,59.9668081539,duckFrog,001,4,
frog,wnL.wav,20,landoltCTop.png,V2,duckFront.png,frogFront.png,HcongWN,h,-20,landoltCL.png,,,,,5,33,433,73,,,h,0,1.36812794072,,,2020_Feb_26_1123,59.9668081539,duckFrog,001,4,
frog,wnL.wav,20,landoltCTop.png,V2,duckFront.png,frogFront.png,HcongWN,h,-20,landoltCL.png,,,,,5,34,434,25,,,h,0,0.867526417875,,,2020_Feb_26_1123,59.9668081539,duckFrog,001,4,
frog,wnR.wav,-20,landoltCR.png,V2,frogFront.png,duckFront.png,HcongWN,h,20,landoltCTop.png,,,,,5,35,435,61,,,s,0,1.13441377734,,,2020_Feb_26_1123,59.9668081539,duckFrog,001,4,
duck,wnR.wav,-20,landoltCL.png,V2,duckFront.png,frogFront.png,LcongWN,h,20,landoltCTop.png,,,,,5,36,436,5,,,h,0,2.81898964691,,,2020_Feb_26_1123,59.9668081539,duckFrog,001,4,
frog,ribbitL.wav,20,landoltCTop.png,V2,duckFront.png,frogFront.png,Hcong,h,-20,landoltCR.png,,,,,5,37,437,72,,,h,0,0.900663324617,,,2020_Feb_26_1123,59.9668081539,duckFrog,001,4,
frog,quackL.wav,-20,landoltCL.png,V2,frogFront.png,duckFront.png,HinCong,b,20,landoltCBottom.png,,,,,5,38,438,70,,,b,0,1.00081339375,,,2020_Feb_26_1123,59.9668081539,duckFrog,001,4,
frog,wnL.wav,-20,landoltCR.png,V2,frogFront.png,duckFront.png,HinCongWN,h,20,landoltCTop.png,,,,,5,39,439,47,,,s,0,0.333773692517,,,2020_Feb_26_1123,59.9668081539,duckFrog,001,4,
frog,quackR.wav,20,landoltCTop.png,V2,duckFront.png,frogFront.png,HinCong,h,-20,landoltCR.png,,,,,5,40,440,58,,,s,0,1.40127474455,,,2020_Feb_26_1123,59.9668081539,duckFrog,001,4,
frog,ribbitL.wav,20,landoltCBottom.png,V2,duckFront.png,frogFront.png,Hcong,b,-20,landoltCL.png,,,,,5,41,441,64,,,b,0,1.11747509967,,,2020_Feb_26_1123,59.9668081539,duckFrog,001,4,
frog,wnR.wav,20,landoltCTop.png,V2,duckFront.png,frogFront.png,HinCongWN,h,-20,landoltCL.png,,,,,5,42,442,59,,,h,0,1.65150824244,,,2020_Feb_26_1123,59.9668081539,duckFrog,001,4,
frog,ribbitR.wav,-20,landoltCL.png,V2,frogFront.png,duckFront.png,Hcong,h,20,landoltCTop.png,,,,,5,43,443,60,,,h,0,1.38438261984,,,2020_Feb_26_1123,59.9668081539,duckFrog,001,4,
frog,wnR.wav,20,landoltCTop.png,V2,duckFront.png,frogFront.png,HinCongWN,h,-20,landoltCL.png,,,,,5,44,444,27,,,b,0,1.43442521396,,,2020_Feb_26_1123,59.9668081539,duckFrog,001,4,
duck,wnL.wav,-20,landoltCL.png,V2,duckFront.png,frogFront.png,LinCongWN,h,20,landoltCTop.png,,,,,5,45,445,7,,,h,0,1.65151594018,,,2020_Feb_26_1123,59.9668081539,duckFrog,001,4,
frog,quackL.wav,-20,landoltCL.png,V2,frogFront.png,duckFront.png,HinCong,h,20,landoltCTop.png,,,,,5,46,446,30,,,s,0,0.784313926735,,,2020_Feb_26_1123,59.9668081539,duckFrog,001,4,
frog,wnR.wav,20,landoltCBottom.png,V2,duckFront.png,frogFront.png,HinCongWN,b,-20,landoltCR.png,,,,,5,47,447,51,,,s,0,0.400513402114,,,2020_Feb_26_1123,59.9668081539,duckFrog,001,4,
frog,wnR.wav,-20,landoltCR.png,V2,frogFront.png,duckFront.png,HcongWN,b,20,landoltCBottom.png,,,,,5,48,448,53,,,b,0,5.3044204047,,,2020_Feb_26_1123,59.9668081539,duckFrog,001,4,
duck,ribbitL.wav,-20,landoltCR.png,V2,duckFront.png,frogFront.png,LinCong,b,20,landoltCBottom.png,,,,,5,49,449,14,,,b,0,1.9017091166,,,2020_Feb_26_1123,59.9668081539,duckFrog,001,4,
frog,quackR.wav,20,landoltCTop.png,V2,duckFront.png,frogFront.png,HinCong,h,-20,landoltCR.png,,,,,5,50,450,74,,,h,0,1.50117298786,,,2020_Feb_26_1123,59.9668081539,duckFrog,001,4,
frog,wnL.wav,-20,landoltCR.png,V2,frogFront.png,duckFront.png,HinCongWN,b,20,landoltCBottom.png,,,,,5,51,451,39,,,b,0,1.78478018941,,,2020_Feb_26_1123,59.9668081539,duckFrog,001,4,
frog,wnL.wav,-20,landoltCR.png,V2,frogFront.png,duckFront.png,HinCongWN,b,20,landoltCBottom.png,,,,,5,52,452,23,,,b,0,0.834193402246,,,2020_Feb_26_1123,59.9668081539,duckFrog,001,4,
frog,wnR.wav,-20,landoltCR.png,V2,frogFront.png,duckFront.png,HcongWN,h,20,landoltCTop.png,,,,,5,53,453,77,,,h,0,1.03432125792,,,2020_Feb_26_1123,59.9668081539,duckFrog,001,4,
frog,quackR.wav,20,landoltCBottom.png,V2,duckFront.png,frogFront.png,HinCong,b,-20,landoltCL.png,,,,,5,54,454,50,,,b,0,0.733878748244,,,2020_Feb_26_1123,59.9668081539,duckFrog,001,4,
frog,quackL.wav,-20,landoltCL.png,V2,frogFront.png,duckFront.png,HinCong,h,20,landoltCTop.png,,,,,5,55,455,46,,,h,0,1.43446443573,,,2020_Feb_26_1123,59.9668081539,duckFrog,001,4,
frog,wnL.wav,-20,landoltCR.png,V2,frogFront.png,duckFront.png,HinCongWN,b,20,landoltCBottom.png,,,,,5,56,456,71,,,b,0,0.950825050328,,,2020_Feb_26_1123,59.9668081539,duckFrog,001,4,
duck,wnR.wav,20,landoltCBottom.png,V2,frogFront.png,duckFront.png,LinCongWN,b,-20,landoltCL.png,,,,,5,57,457,11,,,b,0,1.56800470369,,,2020_Feb_26_1123,59.9668081539,duckFrog,001,4,
frog,wnR.wav,20,landoltCBottom.png,V2,duckFront.png,frogFront.png,HinCongWN,b,-20,landoltCR.png,,,,,5,58,458,35,,,b,0,1.4515548687,,,2020_Feb_26_1123,59.9668081539,duckFrog,001,4,
frog,wnL.wav,20,landoltCBottom.png,V2,duckFront.png,frogFront.png,HcongWN,b,-20,landoltCR.png,,,,,5,59,459,17,,,b,0,1.21795470508,,,2020_Feb_26_1123,59.9668081539,duckFrog,001,4,
duck,wnR.wav,20,landoltCTop.png,V2,frogFront.png,duckFront.png,LinCongWN,h,-20,landoltCR.png,,,,,5,60,460,3,,,b,0,1.10118999617,,,2020_Feb_26_1123,59.9668081539,duckFrog,001,4,
frog,ribbitL.wav,20,landoltCBottom.png,V2,duckFront.png,frogFront.png,Hcong,b,-20,landoltCL.png,,,,,5,61,461,16,,,s,0,0.66738463298,,,2020_Feb_26_1123,59.9668081539,duckFrog,001,4,
frog,wnL.wav,20,landoltCTop.png,V2,duckFront.png,frogFront.png,HcongWN,h,-20,landoltCL.png,,,,,5,62,462,41,,,h,0,1.41799861881,,,2020_Feb_26_1123,59.9668081539,duckFrog,001,4,
duck,wnL.wav,-20,landoltCL.png,V2,duckFront.png,frogFront.png,LinCongWN,b,20,landoltCBottom.png,,,,,5,63,463,15,,,b,0,1.4010240184,,,2020_Feb_26_1123,59.9668081539,duckFrog,001,4,
frog,ribbitR.wav,-20,landoltCL.png,V2,frogFront.png,duckFront.png,Hcong,b,20,landoltCBottom.png,,,,,5,64,464,52,,,b,0,1.08437228289,,,2020_Feb_26_1123,59.9668081539,duckFrog,001,4,
frog,quackR.wav,20,landoltCBottom.png,V2,duckFront.png,frogFront.png,HinCong,b,-20,landoltCL.png,,,,,5,65,465,66,,,b,0,1.31745706499,,,2020_Feb_26_1123,59.9668081539,duckFrog,001,4,
frog,wnL.wav,20,landoltCTop.png,V2,duckFront.png,frogFront.png,HcongWN,h,-20,landoltCL.png,,,,,5,66,466,57,,,b,0,0.83419963374,,,2020_Feb_26_1123,59.9668081539,duckFrog,001,4,
frog,quackL.wav,-20,landoltCL.png,V2,frogFront.png,duckFront.png,HinCong,b,20,landoltCBottom.png,,,,,5,67,467,38,,,b,0,0.950666330406,,,2020_Feb_26_1123,59.9668081539,duckFrog,001,4,
frog,wnR.wav,-20,landoltCR.png,V2,frogFront.png,duckFront.png,HcongWN,b,20,landoltCBottom.png,,,,,5,68,468,37,,,b,0,0.85106683246,,,2020_Feb_26_1123,59.9668081539,duckFrog,001,4,
frog,ribbitL.wav,20,landoltCBottom.png,V2,duckFront.png,frogFront.png,Hcong,b,-20,landoltCL.png,,,,,5,69,469,32,,,b,0,1.06766893591,,,2020_Feb_26_1123,59.9668081539,duckFrog,001,4,
frog,ribbitR.wav,-20,landoltCL.png,V2,frogFront.png,duckFront.png,Hcong,h,20,landoltCTop.png,,,,,5,70,470,28,,,h,0,0.950957378023,,,2020_Feb_26_1123,59.9668081539,duckFrog,001,4,
duck,wnR.wav,-20,landoltCL.png,V2,duckFront.png,frogFront.png,LcongWN,b,20,landoltCBottom.png,,,,,5,71,471,13,,,b,0,1.83489536216,,,2020_Feb_26_1123,59.9668081539,duckFrog,001,4,
duck,wnL.wav,20,landoltCTop.png,V2,frogFront.png,duckFront.png,LcongWN,h,-20,landoltCR.png,,,,,5,72,472,1,,,h,0,2.00149409327,,,2020_Feb_26_1123,59.9668081539,duckFrog,001,4,
frog,quackL.wav,-20,landoltCL.png,V2,frogFront.png,duckFront.png,HinCong,b,20,landoltCBottom.png,,,,,5,73,473,22,,,b,0,1.56787530846,,,2020_Feb_26_1123,59.9668081539,duckFrog,001,4,
frog,ribbitR.wav,-20,landoltCL.png,V2,frogFront.png,duckFront.png,Hcong,h,20,landoltCTop.png,,,,,5,74,474,44,,,h,0,0.950947480931,,,2020_Feb_26_1123,59.9668081539,duckFrog,001,4,
frog,wnR.wav,20,landoltCTop.png,V2,duckFront.png,frogFront.png,HinCongWN,h,-20,landoltCL.png,,,,,5,75,475,43,,,h,0,1.9681515471,,,2020_Feb_26_1123,59.9668081539,duckFrog,001,4,
frog,ribbitL.wav,20,landoltCBottom.png,V2,duckFront.png,frogFront.png,Hcong,b,-20,landoltCL.png,,,,,5,76,476,48,,,b,0,1.03433152156,,,2020_Feb_26_1123,59.9668081539,duckFrog,001,4,
frog,ribbitL.wav,20,landoltCTop.png,V2,duckFront.png,frogFront.png,Hcong,h,-20,landoltCR.png,,,,,5,77,477,56,,,h,0,0.917636092243,,,2020_Feb_26_1123,59.9668081539,duckFrog,001,4,
frog,wnR.wav,-20,landoltCR.png,V2,frogFront.png,duckFront.png,HcongWN,h,20,landoltCTop.png,,,,,5,78,478,29,,,h,0,0.850598370424,,,2020_Feb_26_1123,59.9668081539,duckFrog,001,4,
frog,wnL.wav,20,landoltCBottom.png,V2,duckFront.png,frogFront.png,HcongWN,b,-20,landoltCR.png,,,,,5,79,479,33,,,b,0,0.850554749952,,,2020_Feb_26_1123,59.9668081539,duckFrog,001,4,
frog,wnR.wav,-20,landoltCR.png,V2,frogFront.png,duckFront.png,HcongWN,b,20,landoltCBottom.png,,,,,6,0,480,37,,,b,0,1.50132987497,,,2020_Feb_26_1123,59.9668081539,duckFrog,001,4,
frog,quackR.wav,20,landoltCTop.png,V2,duckFront.png,frogFront.png,HinCong,h,-20,landoltCR.png,,,,,6,1,481,26,,,h,0,1.75141015132,,,2020_Feb_26_1123,59.9668081539,duckFrog,001,4,
frog,ribbitL.wav,20,landoltCBottom.png,V2,duckFront.png,frogFront.png,Hcong,b,-20,landoltCL.png,,,,,6,2,482,64,,,b,0,0.884203739188,,,2020_Feb_26_1123,59.9668081539,duckFrog,001,4,
frog,ribbitL.wav,20,landoltCBottom.png,V2,duckFront.png,frogFront.png,Hcong,b,-20,landoltCL.png,,,,,6,3,483,32,,,b,0,0.884288047702,,,2020_Feb_26_1123,59.9668081539,duckFrog,001,4,
frog,wnL.wav,-20,landoltCR.png,V2,frogFront.png,duckFront.png,HinCongWN,h,20,landoltCTop.png,,,,,6,4,484,79,,,s,0,0.450564427098,,,2020_Feb_26_1123,59.9668081539,duckFrog,001,4,
frog,wnR.wav,20,landoltCTop.png,V2,duckFront.png,frogFront.png,HinCongWN,h,-20,landoltCL.png,,,,,6,5,485,43,,,h,0,1.78509103118,,,2020_Feb_26_1123,59.9668081539,duckFrog,001,4,
frog,wnR.wav,-20,landoltCR.png,V2,frogFront.png,duckFront.png,HcongWN,h,20,landoltCTop.png,,,,,6,6,486,45,,,h,0,0.958290018316,,,2020_Feb_26_1123,59.9668081539,duckFrog,001,4,
duck,quackL.wav,20,landoltCTop.png,V2,frogFront.png,duckFront.png,Lcong,h,-20,landoltCL.png,,,,,6,7,487,0,,,h,0,1.93482842854,,,2020_Feb_26_1123,59.9668081539,duckFrog,001,4,
frog,wnR.wav,-20,landoltCR.png,V2,frogFront.png,duckFront.png,HcongWN,h,20,landoltCTop.png,,,,,6,8,488,61,,,h,0,2.8187953708,,,2020_Feb_26_1123,59.9668081539,duckFrog,001,4,
frog,wnL.wav,20,landoltCBottom.png,V2,duckFront.png,frogFront.png,HcongWN,b,-20,landoltCR.png,,,,,6,9,489,17,,,b,0,1.50092226169,,,2020_Feb_26_1123,59.9668081539,duckFrog,001,4,
frog,quackL.wav,-20,landoltCL.png,V2,frogFront.png,duckFront.png,HinCong,b,20,landoltCBottom.png,,,,,6,10,490,54,,,b,0,1.48434391124,,,2020_Feb_26_1123,59.9668081539,duckFrog,001,4,
duck,ribbitR.wav,20,landoltCBottom.png,V2,frogFront.png,duckFront.png,LinCong,b,-20,landoltCR.png,,,,,6,11,491,10,,,b,0,1.71801958595,,,2020_Feb_26_1123,59.9668081539,duckFrog,001,4,
frog,wnL.wav,-20,landoltCR.png,V2,frogFront.png,duckFront.png,HinCongWN,b,20,landoltCBottom.png,,,,,6,12,492,71,,,b,0,1.43414333032,,,2020_Feb_26_1123,59.9668081539,duckFrog,001,4,
frog,wnL.wav,20,landoltCBottom.png,V2,duckFront.png,frogFront.png,HcongWN,b,-20,landoltCR.png,,,,,6,13,493,65,,,b,0,1.75112056996,,,2020_Feb_26_1123,59.9668081539,duckFrog,001,4,
frog,quackL.wav,-20,landoltCL.png,V2,frogFront.png,duckFront.png,HinCong,h,20,landoltCTop.png,,,,,6,14,494,46,,,h,0,1.73467344751,,,2020_Feb_26_1123,59.9668081539,duckFrog,001,4,
frog,ribbitL.wav,20,landoltCTop.png,V2,duckFront.png,frogFront.png,Hcong,h,-20,landoltCR.png,,,,,6,15,495,24,,,h,0,0.867321878133,,,2020_Feb_26_1123,59.9668081539,duckFrog,001,4,
frog,wnR.wav,-20,landoltCR.png,V2,frogFront.png,duckFront.png,HcongWN,b,20,landoltCBottom.png,,,,,6,16,496,21,,,b,0,1.3678830795,,,2020_Feb_26_1123,59.9668081539,duckFrog,001,4,
frog,quackR.wav,20,landoltCTop.png,V2,duckFront.png,frogFront.png,HinCong,h,-20,landoltCR.png,,,,,6,17,497,42,,,h,0,1.28404413952,,,2020_Feb_26_1123,59.9668081539,duckFrog,001,4,
duck,quackR.wav,-20,landoltCR.png,V2,duckFront.png,frogFront.png,Lcong,h,20,landoltCTop.png,,,,,6,18,498,4,,,h,0,1.8681059472,,,2020_Feb_26_1123,59.9668081539,duckFrog,001,4,
frog,ribbitL.wav,20,landoltCTop.png,V2,duckFront.png,frogFront.png,Hcong,h,-20,landoltCR.png,,,,,6,19,499,40,,,h,0,0.850746460143,,,2020_Feb_26_1123,59.9668081539,duckFrog,001,4,
frog,wnR.wav,-20,landoltCR.png,V2,frogFront.png,duckFront.png,HcongWN,b,20,landoltCBottom.png,,,,,6,20,500,69,,,b,0,0.884013861782,,,2020_Feb_26_1123,59.9668081539,duckFrog,001,4,
duck,quackR.wav,-20,landoltCR.png,V2,duckFront.png,frogFront.png,Lcong,b,20,landoltCBottom.png,,,,,6,21,501,12,,,b,0,1.70156219989,,,2020_Feb_26_1123,59.9668081539,duckFrog,001,4,
frog,wnL.wav,20,landoltCTop.png,V2,duckFront.png,frogFront.png,HcongWN,h,-20,landoltCL.png,,,,,6,22,502,57,,,h,0,1.71788322613,,,2020_Feb_26_1123,59.9668081539,duckFrog,001,4,
duck,wnR.wav,-20,landoltCL.png,V2,duckFront.png,frogFront.png,LcongWN,b,20,landoltCBottom.png,,,,,6,23,503,13,,,b,0,1.85149900516,,,2020_Feb_26_1123,59.9668081539,duckFrog,001,4,
frog,wnL.wav,20,landoltCTop.png,V2,duckFront.png,frogFront.png,HcongWN,h,-20,landoltCL.png,,,,,6,24,504,41,,,h,0,0.883945315305,,,2020_Feb_26_1123,59.9668081539,duckFrog,001,4,
frog,quackR.wav,20,landoltCBottom.png,V2,duckFront.png,frogFront.png,HinCong,b,-20,landoltCL.png,,,,,6,25,505,18,,,b,0,1.55161989623,,,2020_Feb_26_1123,59.9668081539,duckFrog,001,4,
frog,quackR.wav,20,landoltCTop.png,V2,duckFront.png,frogFront.png,HinCong,h,-20,landoltCR.png,,,,,6,26,506,74,,,h,0,1.53474023452,,,2020_Feb_26_1123,59.9668081539,duckFrog,001,4,
frog,quackR.wav,20,landoltCBottom.png,V2,duckFront.png,frogFront.png,HinCong,b,-20,landoltCL.png,,,,,6,27,507,66,,,b,0,0.934457104566,,,2020_Feb_26_1123,59.9668081539,duckFrog,001,4,
duck,wnL.wav,20,landoltCBottom.png,V2,frogFront.png,duckFront.png,LcongWN,b,-20,landoltCL.png,,,,,6,28,508,9,,,b,0,1.25134930258,,,2020_Feb_26_1123,59.9668081539,duckFrog,001,4,
frog,wnR.wav,20,landoltCBottom.png,V2,duckFront.png,frogFront.png,HinCongWN,b,-20,landoltCR.png,,,,,6,29,509,19,,,b,0,3.50298305473,,,2020_Feb_26_1123,59.9668081539,duckFrog,001,4,
frog,wnL.wav,-20,landoltCR.png,V2,frogFront.png,duckFront.png,HinCongWN,b,20,landoltCBottom.png,,,,,6,30,510,23,,,b,0,2.55412605808,,,2020_Feb_26_1123,59.9668081539,duckFrog,001,4,
frog,wnR.wav,20,landoltCTop.png,V2,duckFront.png,frogFront.png,HinCongWN,h,-20,landoltCL.png,,,,,6,31,511,59,,,b,0,1.78466362374,,,2020_Feb_26_1123,59.9668081539,duckFrog,001,4,
frog,ribbitL.wav,20,landoltCBottom.png,V2,duckFront.png,frogFront.png,Hcong,b,-20,landoltCL.png,,,,,6,32,512,16,,,b,0,1.17198787718,,,2020_Feb_26_1123,59.9668081539,duckFrog,001,4,
frog,wnL.wav,-20,landoltCR.png,V2,frogFront.png,duckFront.png,HinCongWN,b,20,landoltCBottom.png,,,,,6,33,513,39,,,b,0,0.917355674843,,,2020_Feb_26_1123,59.9668081539,duckFrog,001,4,
frog,ribbitR.wav,-20,landoltCL.png,V2,frogFront.png,duckFront.png,Hcong,b,20,landoltCBottom.png,,,,,6,34,514,68,,,b,0,0.784096190866,,,2020_Feb_26_1123,59.9668081539,duckFrog,001,4,
frog,wnR.wav,-20,landoltCR.png,V2,frogFront.png,duckFront.png,HcongWN,h,20,landoltCTop.png,,,,,6,35,515,77,,,h,0,1.30102350522,,,2020_Feb_26_1123,59.9668081539,duckFrog,001,4,
frog,ribbitR.wav,-20,landoltCL.png,V2,frogFront.png,duckFront.png,Hcong,h,20,landoltCTop.png,,,,,6,36,516,60,,,h,0,1.06794715396,,,2020_Feb_26_1123,59.9668081539,duckFrog,001,4,
frog,quackL.wav,-20,landoltCL.png,V2,frogFront.png,duckFront.png,HinCong,h,20,landoltCTop.png,,,,,6,37,517,62,,,h,0,1.56814729502,,,2020_Feb_26_1123,59.9668081539,duckFrog,001,4,
frog,wnR.wav,20,landoltCBottom.png,V2,duckFront.png,frogFront.png,HinCongWN,b,-20,landoltCR.png,,,,,6,38,518,35,,,b,0,0.817190576796,,,2020_Feb_26_1123,59.9668081539,duckFrog,001,4,
frog,ribbitR.wav,-20,landoltCL.png,V2,frogFront.png,duckFront.png,Hcong,h,20,landoltCTop.png,,,,,6,39,519,76,,,h,0,1.60120172605,,,2020_Feb_26_1123,59.9668081539,duckFrog,001,4,
duck,quackL.wav,20,landoltCBottom.png,V2,frogFront.png,duckFront.png,Lcong,b,-20,landoltCR.png,,,,,6,40,520,8,,,b,0,1.83452220539,,,2020_Feb_26_1123,59.9668081539,duckFrog,001,4,
frog,wnL.wav,20,landoltCTop.png,V2,duckFront.png,frogFront.png,HcongWN,h,-20,landoltCL.png,,,,,6,41,521,73,,,h,0,1.0176520009,,,2020_Feb_26_1123,59.9668081539,duckFrog,001,4,
frog,wnL.wav,-20,landoltCR.png,V2,frogFront.png,duckFront.png,HinCongWN,h,20,landoltCTop.png,,,,,6,42,522,63,,,h,0,0.783902281313,,,2020_Feb_26_1123,59.9668081539,duckFrog,001,4,
frog,wnR.wav,-20,landoltCR.png,V2,frogFront.png,duckFront.png,HcongWN,h,20,landoltCTop.png,,,,,6,43,523,29,,,h,0,1.03416657014,,,2020_Feb_26_1123,59.9668081539,duckFrog,001,4,
frog,ribbitR.wav,-20,landoltCL.png,V2,frogFront.png,duckFront.png,Hcong,b,20,landoltCBottom.png,,,,,6,44,524,52,,,b,0,0.917561314272,,,2020_Feb_26_1123,59.9668081539,duckFrog,001,4,
frog,ribbitR.wav,-20,landoltCL.png,V2,frogFront.png,duckFront.png,Hcong,h,20,landoltCTop.png,,,,,6,45,525,28,,,h,0,1.03436194593,,,2020_Feb_26_1123,59.9668081539,duckFrog,001,4,
frog,ribbitR.wav,-20,landoltCL.png,V2,frogFront.png,duckFront.png,Hcong,b,20,landoltCBottom.png,,,,,6,46,526,20,,,b,0,0.917559848036,,,2020_Feb_26_1123,59.9668081539,duckFrog,001,4,
duck,wnR.wav,20,landoltCTop.png,V2,frogFront.png,duckFront.png,LinCongWN,h,-20,landoltCR.png,,,,,6,47,527,3,,,h,0,1.88476127498,,,2020_Feb_26_1123,59.9668081539,duckFrog,001,4,
frog,wnR.wav,20,landoltCBottom.png,V2,duckFront.png,frogFront.png,HinCongWN,b,-20,landoltCR.png,,,,,6,48,528,51,,,b,0,1.45134263122,,,2020_Feb_26_1123,59.9668081539,duckFrog,001,4,
duck,ribbitR.wav,20,landoltCTop.png,V2,frogFront.png,duckFront.png,LinCong,h,-20,landoltCL.png,,,,,6,49,529,2,,,h,0,1.33499286677,,,2020_Feb_26_1123,59.9668081539,duckFrog,001,4,
frog,wnL.wav,20,landoltCTop.png,V2,duckFront.png,frogFront.png,HcongWN,h,-20,landoltCL.png,,,,,6,50,530,25,,,h,0,0.884230131429,,,2020_Feb_26_1123,59.9668081539,duckFrog,001,4,
duck,wnR.wav,-20,landoltCL.png,V2,duckFront.png,frogFront.png,LcongWN,h,20,landoltCTop.png,,,,,6,51,531,5,,,h,0,1.76807464309,,,2020_Feb_26_1123,59.9668081539,duckFrog,001,4,
frog,wnR.wav,20,landoltCBottom.png,V2,duckFront.png,frogFront.png,HinCongWN,b,-20,landoltCR.png,,,,,6,52,532,67,,,b,0,1.15094447516,,,2020_Feb_26_1123,59.9668081539,duckFrog,001,4,
duck,wnL.wav,-20,landoltCL.png,V2,duckFront.png,frogFront.png,LinCongWN,h,20,landoltCTop.png,,,,,6,53,533,7,,,h,0,1.5178880647,,,2020_Feb_26_1123,59.9668081539,duckFrog,001,4,
frog,quackR.wav,20,landoltCBottom.png,V2,duckFront.png,frogFront.png,HinCong,b,-20,landoltCL.png,,,,,6,54,534,34,,,b,0,0.783962030386,,,2020_Feb_26_1123,59.9668081539,duckFrog,001,4,
frog,wnL.wav,-20,landoltCR.png,V2,frogFront.png,duckFront.png,HinCongWN,b,20,landoltCBottom.png,,,,,6,55,535,55,,,b,0,0.78385462868,,,2020_Feb_26_1123,59.9668081539,duckFrog,001,4,
frog,wnL.wav,-20,landoltCR.png,V2,frogFront.png,duckFront.png,HinCongWN,h,20,landoltCTop.png,,,,,6,56,536,31,,,h,0,1.00098421011,,,2020_Feb_26_1123,59.9668081539,duckFrog,001,4,
frog,quackL.wav,-20,landoltCL.png,V2,frogFront.png,duckFront.png,HinCong,b,20,landoltCBottom.png,,,,,6,57,537,38,,,b,0,0.982365227363,,,2020_Feb_26_1123,59.9668081539,duckFrog,001,4,
frog,quackR.wav,20,landoltCTop.png,V2,duckFront.png,frogFront.png,HinCong,h,-20,landoltCR.png,,,,,6,58,538,58,,,h,0,2.11801540721,,,2020_Feb_26_1123,59.9668081539,duckFrog,001,4,
frog,quackL.wav,-20,landoltCL.png,V2,frogFront.png,duckFront.png,HinCong,h,20,landoltCTop.png,,,,,6,59,539,30,,,h,0,0.900570951839,,,2020_Feb_26_1123,59.9668081539,duckFrog,001,4,
frog,wnL.wav,-20,landoltCR.png,V2,frogFront.png,duckFront.png,HinCongWN,h,20,landoltCTop.png,,,,,6,60,540,47,,,h,0,1.03435461475,,,2020_Feb_26_1123,59.9668081539,duckFrog,001,4,
duck,wnL.wav,-20,landoltCL.png,V2,duckFront.png,frogFront.png,LinCongWN,b,20,landoltCBottom.png,,,,,6,61,541,15,,,b,0,1.75772339187,,,2020_Feb_26_1123,59.9668081539,duckFrog,001,4,
frog,quackR.wav,20,landoltCBottom.png,V2,duckFront.png,frogFront.png,HinCong,b,-20,landoltCL.png,,,,,6,62,542,50,,,b,0,1.83475240426,,,2020_Feb_26_1123,59.9668081539,duckFrog,001,4,
frog,wnR.wav,20,landoltCTop.png,V2,duckFront.png,frogFront.png,HinCongWN,h,-20,landoltCL.png,,,,,6,63,543,75,,,h,0,1.60166175723,,,2020_Feb_26_1123,59.9668081539,duckFrog,001,4,
duck,wnR.wav,20,landoltCBottom.png,V2,frogFront.png,duckFront.png,LinCongWN,b,-20,landoltCL.png,,,,,6,64,544,11,,,b,0,2.0352666128,,,2020_Feb_26_1123,59.9668081539,duckFrog,001,4,
frog,wnR.wav,-20,landoltCR.png,V2,frogFront.png,duckFront.png,HcongWN,b,20,landoltCBottom.png,,,,,6,65,545,53,,,b,0,1.61793073214,,,2020_Feb_26_1123,59.9668081539,duckFrog,001,4,
frog,ribbitR.wav,-20,landoltCL.png,V2,frogFront.png,duckFront.png,Hcong,h,20,landoltCTop.png,,,,,6,66,546,44,,,h,0,1.1344442017,,,2020_Feb_26_1123,59.9668081539,duckFrog,001,4,
frog,ribbitL.wav,20,landoltCBottom.png,V2,duckFront.png,frogFront.png,Hcong,b,-20,landoltCL.png,,,,,6,67,547,48,,,b,0,0.833968335195,,,2020_Feb_26_1123,59.9668081539,duckFrog,001,4,
frog,quackL.wav,-20,landoltCL.png,V2,frogFront.png,duckFront.png,HinCong,h,20,landoltCTop.png,,,,,6,68,548,78,,,h,0,1.85135128201,,,2020_Feb_26_1123,59.9668081539,duckFrog,001,4,
frog,wnR.wav,20,landoltCTop.png,V2,duckFront.png,frogFront.png,HinCongWN,h,-20,landoltCL.png,,,,,6,69,549,27,,,h,0,1.85135861317,,,2020_Feb_26_1123,59.9668081539,duckFrog,001,4,
