targetAnim,audioPos,distPos,visualL,expLab,picR,picL,condLabel,corrAns,targetPos,visualR,pracTrials1a.thisRepN,pracTrials1a.thisTrialN,pracTrials1a.thisN,pracTrials1a.thisIndex,exp1a.thisRepN,exp1a.thisTrialN,exp1a.thisN,exp1a.thisIndex,pressToCont.keys,pressToCont.rt,key_resp_2.keys,key_resp_2.corr,key_resp_2.rt,spaceToBegin.keys,spaceToBegin.rt,date,frameRate,expName,session,participant,
,,,,,,,,,,,,,,,,,,,space,15.5125964233,,,,,,2020_Feb_26_1714,59.9631175573,duckFrog,001,7,
frog,ribbitR.wav,-20,landoltCL.png,prac,frogFront.png,duckFront.png,Lcong,b,20,landoltCBottom.png,0,0,0,3,,,,,,,b,0,3.92000149556,,,2020_Feb_26_1714,59.9631175573,duckFrog,001,7,
frog,wnR.wav,20,landoltCBottom.png,prac,duckFront.png,frogFront.png,LinCongWN,b,-20,landoltCR.png,0,1,1,2,,,,,,,b,0,5.97143188093,,,2020_Feb_26_1714,59.9631175573,duckFrog,001,7,
duck,ribbitL.wav,-20,landoltCR.png,prac,duckFront.png,frogFront.png,HinCong,h,20,landoltCTop.png,0,2,2,1,,,,,,,h,0,1.95150538329,,,2020_Feb_26_1714,59.9631175573,duckFrog,001,7,
duck,wnL.wav,20,landoltCBottom.png,prac,frogFront.png,duckFront.png,HcongWN,b,-20,landoltCL.png,0,3,3,4,,,,,,,b,0,1.38457176412,,,2020_Feb_26_1714,59.9631175573,duckFrog,001,7,
duck,quackL.wav,20,landoltCTop.png,prac,frogFront.png,duckFront.png,Hcong,h,-20,landoltCL.png,0,4,4,0,,,,,,,h,0,2.68566161647,,,2020_Feb_26_1714,59.9631175573,duckFrog,001,7,
,,,,,,,,,,,,,,,,,,,,,,,,space,2.21867206045,2020_Feb_26_1714,59.9631175573,duckFrog,001,7,
duck,wnL.wav,-20,landoltCL.png,V1,duckFront.png,frogFront.png,HinCongWN,h,20,landoltCTop.png,,,,,0,0,0,7,,,h,0,2.11834091133,,,2020_Feb_26_1714,59.9631175573,duckFrog,001,7,
duck,quackR.wav,-20,landoltCR.png,V1,duckFront.png,frogFront.png,Hcong,h,20,landoltCTop.png,,,,,0,1,1,68,,,h,0,1.66816650268,,,2020_Feb_26_1714,59.9631175573,duckFrog,001,7,
frog,quackL.wav,-20,landoltCL.png,V1,frogFront.png,duckFront.png,LinCong,b,20,landoltCBottom.png,,,,,0,2,2,22,,,b,0,1.30121924756,,,2020_Feb_26_1714,59.9631175573,duckFrog,001,7,
duck,wnR.wav,20,landoltCBottom.png,V1,frogFront.png,duckFront.png,HinCongWN,b,-20,landoltCL.png,,,,,0,3,3,11,,,b,0,1.95147862448,,,2020_Feb_26_1714,59.9631175573,duckFrog,001,7,
duck,ribbitL.wav,-20,landoltCR.png,V1,duckFront.png,frogFront.png,HinCong,b,20,landoltCBottom.png,,,,,0,4,4,78,,,b,0,2.0015630063,,,2020_Feb_26_1714,59.9631175573,duckFrog,001,7,
duck,quackL.wav,20,landoltCTop.png,V1,frogFront.png,duckFront.png,Hcong,h,-20,landoltCL.png,,,,,0,5,5,64,,,h,0,2.45190493226,,,2020_Feb_26_1714,59.9631175573,duckFrog,001,7,
duck,wnL.wav,20,landoltCTop.png,V1,frogFront.png,duckFront.png,HcongWN,h,-20,landoltCR.png,,,,,0,6,6,65,,,h,0,2.08520767017,,,2020_Feb_26_1714,59.9631175573,duckFrog,001,7,
duck,wnR.wav,-20,landoltCL.png,V1,duckFront.png,frogFront.png,HcongWN,b,20,landoltCBottom.png,,,,,0,7,7,77,,,b,0,1.70112379566,,,2020_Feb_26_1714,59.9631175573,duckFrog,001,7,
duck,quackR.wav,-20,landoltCR.png,V1,duckFront.png,frogFront.png,Hcong,h,20,landoltCTop.png,,,,,0,8,8,4,,,h,0,2.06851935211,,,2020_Feb_26_1714,59.9631175573,duckFrog,001,7,
duck,ribbitR.wav,20,landoltCTop.png,V1,frogFront.png,duckFront.png,HinCong,h,-20,landoltCL.png,,,,,0,9,9,2,,,h,0,1.63448012446,,,2020_Feb_26_1714,59.9631175573,duckFrog,001,7,
duck,ribbitL.wav,-20,landoltCR.png,V1,duckFront.png,frogFront.png,HinCong,h,20,landoltCTop.png,,,,,0,10,10,38,,,h,0,1.6346021885,,,2020_Feb_26_1714,59.9631175573,duckFrog,001,7,
duck,quackR.wav,-20,landoltCR.png,V1,duckFront.png,frogFront.png,Hcong,h,20,landoltCTop.png,,,,,0,11,11,36,,,h,0,2.16860160787,,,2020_Feb_26_1714,59.9631175573,duckFrog,001,7,
duck,wnL.wav,-20,landoltCL.png,V1,duckFront.png,frogFront.png,HinCongWN,b,20,landoltCBottom.png,,,,,0,12,12,63,,,b,0,1.48472513229,,,2020_Feb_26_1714,59.9631175573,duckFrog,001,7,
duck,ribbitL.wav,-20,landoltCR.png,V1,duckFront.png,frogFront.png,HinCong,b,20,landoltCBottom.png,,,,,0,13,13,14,,,b,0,1.45134116498,,,2020_Feb_26_1714,59.9631175573,duckFrog,001,7,
frog,wnL.wav,20,landoltCTop.png,V1,duckFront.png,frogFront.png,LcongWN,h,-20,landoltCL.png,,,,,0,14,14,25,,,h,0,1.4675434262,,,2020_Feb_26_1714,59.9631175573,duckFrog,001,7,
frog,wnL.wav,20,landoltCBottom.png,V1,duckFront.png,frogFront.png,LcongWN,b,-20,landoltCR.png,,,,,0,15,15,17,,,b,0,2.03540993726,,,2020_Feb_26_1714,59.9631175573,duckFrog,001,7,
frog,wnR.wav,-20,landoltCR.png,V1,frogFront.png,duckFront.png,LcongWN,b,20,landoltCBottom.png,,,,,0,16,16,21,,,b,0,1.46749980573,,,2020_Feb_26_1714,59.9631175573,duckFrog,001,7,
duck,ribbitL.wav,-20,landoltCR.png,V1,duckFront.png,frogFront.png,HinCong,h,20,landoltCTop.png,,,,,0,17,17,70,,,h,0,1.28456355321,,,2020_Feb_26_1714,59.9631175573,duckFrog,001,7,
duck,quackL.wav,20,landoltCTop.png,V1,frogFront.png,duckFront.png,Hcong,h,-20,landoltCL.png,,,,,0,18,18,32,,,h,0,1.5676025888,,,2020_Feb_26_1714,59.9631175573,duckFrog,001,7,
frog,wnR.wav,20,landoltCTop.png,V1,duckFront.png,frogFront.png,LinCongWN,h,-20,landoltCL.png,,,,,0,19,19,27,,,h,0,2.05175698918,,,2020_Feb_26_1714,59.9631175573,duckFrog,001,7,
frog,quackR.wav,20,landoltCBottom.png,V1,duckFront.png,frogFront.png,LinCong,b,-20,landoltCL.png,,,,,0,20,20,18,,,b,0,1.43464661541,,,2020_Feb_26_1714,59.9631175573,duckFrog,001,7,
frog,wnR.wav,20,landoltCBottom.png,V1,duckFront.png,frogFront.png,LinCongWN,b,-20,landoltCR.png,,,,,0,21,21,19,,,b,0,1.41800228439,,,2020_Feb_26_1714,59.9631175573,duckFrog,001,7,
duck,wnL.wav,20,landoltCTop.png,V1,frogFront.png,duckFront.png,HcongWN,h,-20,landoltCR.png,,,,,0,22,22,1,,,h,0,1.13443577086,,,2020_Feb_26_1714,59.9631175573,duckFrog,001,7,
duck,wnL.wav,-20,landoltCL.png,V1,duckFront.png,frogFront.png,HinCongWN,h,20,landoltCTop.png,,,,,0,23,23,39,,,h,0,1.4178300018,,,2020_Feb_26_1714,59.9631175573,duckFrog,001,7,
frog,quackR.wav,20,landoltCTop.png,V1,duckFront.png,frogFront.png,LinCong,h,-20,landoltCR.png,,,,,0,24,24,26,,,h,0,1.73467784622,,,2020_Feb_26_1714,59.9631175573,duckFrog,001,7,
duck,wnR.wav,20,landoltCBottom.png,V1,frogFront.png,duckFront.png,HinCongWN,b,-20,landoltCL.png,,,,,0,25,25,75,,,b,0,1.41798982139,,,2020_Feb_26_1714,59.9631175573,duckFrog,001,7,
duck,wnR.wav,-20,landoltCL.png,V1,duckFront.png,frogFront.png,HcongWN,h,20,landoltCTop.png,,,,,0,26,26,5,,,h,0,1.43443767696,,,2020_Feb_26_1714,59.9631175573,duckFrog,001,7,
duck,wnL.wav,20,landoltCBottom.png,V1,frogFront.png,duckFront.png,HcongWN,b,-20,landoltCL.png,,,,,0,27,27,73,,,b,0,1.76793058551,,,2020_Feb_26_1714,59.9631175573,duckFrog,001,7,
duck,wnR.wav,-20,landoltCL.png,V1,duckFront.png,frogFront.png,HcongWN,h,20,landoltCTop.png,,,,,0,28,28,37,,,h,0,1.60121382249,,,2020_Feb_26_1714,59.9631175573,duckFrog,001,7,
frog,ribbitR.wav,-20,landoltCL.png,V1,frogFront.png,duckFront.png,Lcong,h,20,landoltCTop.png,,,,,0,29,29,28,,,h,0,1.25119241545,,,2020_Feb_26_1714,59.9631175573,duckFrog,001,7,
duck,wnL.wav,-20,landoltCL.png,V1,duckFront.png,frogFront.png,HinCongWN,b,20,landoltCBottom.png,,,,,0,30,30,15,,,b,0,0.984505197062,,,2020_Feb_26_1714,59.9631175573,duckFrog,001,7,
duck,ribbitL.wav,-20,landoltCR.png,V1,duckFront.png,frogFront.png,HinCong,b,20,landoltCBottom.png,,,,,0,31,31,46,,,b,0,0.917798844312,,,2020_Feb_26_1714,59.9631175573,duckFrog,001,7,
duck,wnR.wav,20,landoltCBottom.png,V1,frogFront.png,duckFront.png,HinCongWN,b,-20,landoltCL.png,,,,,0,32,32,43,,,b,0,1.1341619515,,,2020_Feb_26_1714,59.9631175573,duckFrog,001,7,
duck,quackL.wav,20,landoltCBottom.png,V1,frogFront.png,duckFront.png,Hcong,b,-20,landoltCR.png,,,,,0,33,33,40,,,b,0,1.03436011313,,,2020_Feb_26_1714,59.9631175573,duckFrog,001,7,
duck,quackL.wav,20,landoltCBottom.png,V1,frogFront.png,duckFront.png,Hcong,b,-20,landoltCR.png,,,,,0,34,34,72,,,b,0,1.28452213209,,,2020_Feb_26_1714,59.9631175573,duckFrog,001,7,
duck,quackL.wav,20,landoltCTop.png,V1,frogFront.png,duckFront.png,Hcong,h,-20,landoltCL.png,,,,,0,35,35,0,,,h,0,1.51804055311,,,2020_Feb_26_1714,59.9631175573,duckFrog,001,7,
duck,wnL.wav,20,landoltCTop.png,V1,frogFront.png,duckFront.png,HcongWN,h,-20,landoltCR.png,,,,,0,36,36,33,,,h,0,1.65170581758,,,2020_Feb_26_1714,59.9631175573,duckFrog,001,7,
duck,quackR.wav,-20,landoltCR.png,V1,duckFront.png,frogFront.png,Hcong,b,20,landoltCBottom.png,,,,,0,37,37,76,,,b,0,2.10160420751,,,2020_Feb_26_1714,59.9631175573,duckFrog,001,7,
duck,wnR.wav,20,landoltCTop.png,V1,frogFront.png,duckFront.png,HinCongWN,h,-20,landoltCR.png,,,,,0,38,38,51,,,h,0,1.65148624891,,,2020_Feb_26_1714,59.9631175573,duckFrog,001,7,
duck,wnL.wav,20,landoltCBottom.png,V1,frogFront.png,duckFront.png,HcongWN,b,-20,landoltCL.png,,,,,0,39,39,41,,,b,0,1.58479602475,,,2020_Feb_26_1714,59.9631175573,duckFrog,001,7,
duck,wnR.wav,20,landoltCTop.png,V1,frogFront.png,duckFront.png,HinCongWN,h,-20,landoltCR.png,,,,,0,40,40,35,,,h,0,1.45135179519,,,2020_Feb_26_1714,59.9631175573,duckFrog,001,7,
duck,ribbitR.wav,20,landoltCTop.png,V1,frogFront.png,duckFront.png,HinCong,h,-20,landoltCL.png,,,,,0,41,41,34,,,h,0,2.13524623214,,,2020_Feb_26_1714,59.9631175573,duckFrog,001,7,
duck,wnR.wav,20,landoltCTop.png,V1,frogFront.png,duckFront.png,HinCongWN,h,-20,landoltCR.png,,,,,0,42,42,3,,,h,0,1.034343618,,,2020_Feb_26_1714,59.9631175573,duckFrog,001,7,
frog,quackL.wav,-20,landoltCL.png,V1,frogFront.png,duckFront.png,LinCong,h,20,landoltCTop.png,,,,,0,43,43,30,,,h,0,1.08414648272,,,2020_Feb_26_1714,59.9631175573,duckFrog,001,7,
duck,quackL.wav,20,landoltCBottom.png,V1,frogFront.png,duckFront.png,Hcong,b,-20,landoltCR.png,,,,,0,44,44,8,,,b,0,1.05058510101,,,2020_Feb_26_1714,59.9631175573,duckFrog,001,7,
duck,ribbitL.wav,-20,landoltCR.png,V1,duckFront.png,frogFront.png,HinCong,h,20,landoltCTop.png,,,,,0,45,45,54,,,h,0,1.88477337142,,,2020_Feb_26_1714,59.9631175573,duckFrog,001,7,
duck,quackL.wav,20,landoltCBottom.png,V1,frogFront.png,duckFront.png,Hcong,b,-20,landoltCR.png,,,,,0,46,46,56,,,b,0,1.20115422003,,,2020_Feb_26_1714,59.9631175573,duckFrog,001,7,
duck,ribbitR.wav,20,landoltCBottom.png,V1,frogFront.png,duckFront.png,HinCong,b,-20,landoltCR.png,,,,,0,47,47,58,,,b,0,1.45135949292,,,2020_Feb_26_1714,59.9631175573,duckFrog,001,7,
duck,ribbitL.wav,-20,landoltCR.png,V1,duckFront.png,frogFront.png,HinCong,b,20,landoltCBottom.png,,,,,0,48,48,62,,,b,0,0.800623589661,,,2020_Feb_26_1714,59.9631175573,duckFrog,001,7,
duck,ribbitR.wav,20,landoltCTop.png,V1,frogFront.png,duckFront.png,HinCong,h,-20,landoltCL.png,,,,,0,49,49,66,,,b,0,0.850672415283,,,2020_Feb_26_1714,59.9631175573,duckFrog,001,7,
duck,ribbitR.wav,20,landoltCTop.png,V1,frogFront.png,duckFront.png,HinCong,h,-20,landoltCL.png,,,,,0,50,50,50,,,h,0,1.63463481223,,,2020_Feb_26_1714,59.9631175573,duckFrog,001,7,
frog,ribbitL.wav,20,landoltCBottom.png,V1,duckFront.png,frogFront.png,Lcong,b,-20,landoltCL.png,,,,,0,51,51,16,,,b,0,1.23467674654,,,2020_Feb_26_1714,59.9631175573,duckFrog,001,7,
duck,ribbitR.wav,20,landoltCBottom.png,V1,frogFront.png,duckFront.png,HinCong,b,-20,landoltCR.png,,,,,0,52,52,10,,,b,0,1.91856165297,,,2020_Feb_26_1714,59.9631175573,duckFrog,001,7,
duck,wnR.wav,-20,landoltCL.png,V1,duckFront.png,frogFront.png,HcongWN,h,20,landoltCTop.png,,,,,0,53,53,69,,,h,0,1.45112562846,,,2020_Feb_26_1714,59.9631175573,duckFrog,001,7,
duck,quackL.wav,20,landoltCTop.png,V1,frogFront.png,duckFront.png,Hcong,h,-20,landoltCL.png,,,,,0,54,54,48,,,h,0,1.98488348565,,,2020_Feb_26_1714,59.9631175573,duckFrog,001,7,
duck,wnR.wav,20,landoltCBottom.png,V1,frogFront.png,duckFront.png,HinCongWN,b,-20,landoltCL.png,,,,,0,55,55,59,,,b,0,1.36791203765,,,2020_Feb_26_1714,59.9631175573,duckFrog,001,7,
duck,wnL.wav,20,landoltCBottom.png,V1,frogFront.png,duckFront.png,HcongWN,b,-20,landoltCL.png,,,,,0,56,56,57,,,b,0,1.01763953789,,,2020_Feb_26_1714,59.9631175573,duckFrog,001,7,
duck,wnL.wav,-20,landoltCL.png,V1,duckFront.png,frogFront.png,HinCongWN,h,20,landoltCTop.png,,,,,0,57,57,71,,,h,0,1.04646754709,,,2020_Feb_26_1714,59.9631175573,duckFrog,001,7,
frog,ribbitL.wav,20,landoltCTop.png,V1,duckFront.png,frogFront.png,Lcong,h,-20,landoltCR.png,,,,,0,58,58,24,,,h,0,1.66794436812,,,2020_Feb_26_1714,59.9631175573,duckFrog,001,7,
duck,wnL.wav,-20,landoltCL.png,V1,duckFront.png,frogFront.png,HinCongWN,h,20,landoltCTop.png,,,,,0,59,59,55,,,h,0,1.11748866235,,,2020_Feb_26_1714,59.9631175573,duckFrog,001,7,
duck,wnR.wav,20,landoltCTop.png,V1,frogFront.png,duckFront.png,HinCongWN,h,-20,landoltCR.png,,,,,0,60,60,67,,,h,0,1.51783051497,,,2020_Feb_26_1714,59.9631175573,duckFrog,001,7,
duck,quackR.wav,-20,landoltCR.png,V1,duckFront.png,frogFront.png,Hcong,h,20,landoltCTop.png,,,,,0,61,61,52,,,h,0,0.867328109627,,,2020_Feb_26_1714,59.9631175573,duckFrog,001,7,
frog,ribbitR.wav,-20,landoltCL.png,V1,frogFront.png,duckFront.png,Lcong,b,20,landoltCBottom.png,,,,,0,62,62,20,,,b,0,1.35116580329,,,2020_Feb_26_1714,59.9631175573,duckFrog,001,7,
duck,wnR.wav,-20,landoltCL.png,V1,duckFront.png,frogFront.png,HcongWN,b,20,landoltCBottom.png,,,,,0,63,63,45,,,b,0,1.53481061378,,,2020_Feb_26_1714,59.9631175573,duckFrog,001,7,
duck,wnR.wav,-20,landoltCL.png,V1,duckFront.png,frogFront.png,HcongWN,b,20,landoltCBottom.png,,,,,0,64,64,61,,,b,0,1.00100180494,,,2020_Feb_26_1714,59.9631175573,duckFrog,001,7,
duck,wnL.wav,-20,landoltCL.png,V1,duckFront.png,frogFront.png,HinCongWN,b,20,landoltCBottom.png,,,,,0,65,65,79,,,b,0,1.06760552125,,,2020_Feb_26_1714,59.9631175573,duckFrog,001,7,
duck,quackR.wav,-20,landoltCR.png,V1,duckFront.png,frogFront.png,Hcong,b,20,landoltCBottom.png,,,,,0,66,66,60,,,b,0,0.900943742032,,,2020_Feb_26_1714,59.9631175573,duckFrog,001,7,
duck,wnL.wav,20,landoltCBottom.png,V1,frogFront.png,duckFront.png,HcongWN,b,-20,landoltCL.png,,,,,0,67,67,9,,,b,0,0.850783849135,,,2020_Feb_26_1714,59.9631175573,duckFrog,001,7,
duck,quackR.wav,-20,landoltCR.png,V1,duckFront.png,frogFront.png,Hcong,b,20,landoltCBottom.png,,,,,0,68,68,12,,,b,0,0.850847263791,,,2020_Feb_26_1714,59.9631175573,duckFrog,001,7,
duck,ribbitL.wav,-20,landoltCR.png,V1,duckFront.png,frogFront.png,HinCong,h,20,landoltCTop.png,,,,,0,69,69,6,,,h,0,1.01766849605,,,2020_Feb_26_1714,59.9631175573,duckFrog,001,7,
duck,wnL.wav,20,landoltCTop.png,V1,frogFront.png,duckFront.png,HcongWN,h,-20,landoltCR.png,,,,,0,70,70,49,,,h,0,1.68461179234,,,2020_Feb_26_1714,59.9631175573,duckFrog,001,7,
duck,ribbitR.wav,20,landoltCBottom.png,V1,frogFront.png,duckFront.png,HinCong,b,-20,landoltCR.png,,,,,0,71,71,42,,,b,0,1.41797809151,,,2020_Feb_26_1714,59.9631175573,duckFrog,001,7,
duck,wnL.wav,-20,landoltCL.png,V1,duckFront.png,frogFront.png,HinCongWN,b,20,landoltCBottom.png,,,,,0,72,72,47,,,b,0,1.68461765727,,,2020_Feb_26_1714,59.9631175573,duckFrog,001,7,
duck,ribbitR.wav,20,landoltCBottom.png,V1,frogFront.png,duckFront.png,HinCong,b,-20,landoltCR.png,,,,,0,73,73,74,,,b,0,0.917530523337,,,2020_Feb_26_1714,59.9631175573,duckFrog,001,7,
duck,wnR.wav,-20,landoltCL.png,V1,duckFront.png,frogFront.png,HcongWN,h,20,landoltCTop.png,,,,,0,74,74,53,,,h,0,1.58455262976,,,2020_Feb_26_1714,59.9631175573,duckFrog,001,7,
frog,wnL.wav,-20,landoltCR.png,V1,frogFront.png,duckFront.png,LinCongWN,b,20,landoltCBottom.png,,,,,0,75,75,23,,,b,0,1.81845923649,,,2020_Feb_26_1714,59.9631175573,duckFrog,001,7,
frog,wnL.wav,-20,landoltCR.png,V1,frogFront.png,duckFront.png,LinCongWN,h,20,landoltCTop.png,,,,,0,76,76,31,,,h,0,1.06792222797,,,2020_Feb_26_1714,59.9631175573,duckFrog,001,7,
duck,wnR.wav,-20,landoltCL.png,V1,duckFront.png,frogFront.png,HcongWN,b,20,landoltCBottom.png,,,,,0,77,77,13,,,b,0,1.61807698905,,,2020_Feb_26_1714,59.9631175573,duckFrog,001,7,
duck,quackR.wav,-20,landoltCR.png,V1,duckFront.png,frogFront.png,Hcong,b,20,landoltCBottom.png,,,,,0,78,78,44,,,b,0,0.934460403601,,,2020_Feb_26_1714,59.9631175573,duckFrog,001,7,
frog,wnR.wav,-20,landoltCR.png,V1,frogFront.png,duckFront.png,LcongWN,h,20,landoltCTop.png,,,,,0,79,79,29,,,h,0,1.16784356447,,,2020_Feb_26_1714,59.9631175573,duckFrog,001,7,
duck,ribbitL.wav,-20,landoltCR.png,V1,duckFront.png,frogFront.png,HinCong,b,20,landoltCBottom.png,,,,,1,0,80,46,,,b,0,0.984581807847,,,2020_Feb_26_1714,59.9631175573,duckFrog,001,7,
duck,quackR.wav,-20,landoltCR.png,V1,duckFront.png,frogFront.png,Hcong,h,20,landoltCTop.png,,,,,1,1,81,4,,,h,0,0.934366564572,,,2020_Feb_26_1714,59.9631175573,duckFrog,001,7,
duck,wnR.wav,-20,landoltCL.png,V1,duckFront.png,frogFront.png,HcongWN,b,20,landoltCBottom.png,,,,,1,2,82,45,,,b,0,1.30145421169,,,2020_Feb_26_1714,59.9631175573,duckFrog,001,7,
duck,quackL.wav,20,landoltCBottom.png,V1,frogFront.png,duckFront.png,Hcong,b,-20,landoltCR.png,,,,,1,3,83,8,,,b,0,0.91750669702,,,2020_Feb_26_1714,59.9631175573,duckFrog,001,7,
duck,wnL.wav,-20,landoltCL.png,V1,duckFront.png,frogFront.png,HinCongWN,b,20,landoltCBottom.png,,,,,1,4,84,47,,,b,0,0.917414324227,,,2020_Feb_26_1714,59.9631175573,duckFrog,001,7,
duck,quackL.wav,20,landoltCBottom.png,V1,frogFront.png,duckFront.png,Hcong,b,-20,landoltCR.png,,,,,1,5,85,56,,,b,0,0.967425394309,,,2020_Feb_26_1714,59.9631175573,duckFrog,001,7,
duck,wnR.wav,20,landoltCBottom.png,V1,frogFront.png,duckFront.png,HinCongWN,b,-20,landoltCL.png,,,,,1,6,86,59,,,b,0,0.817677000203,,,2020_Feb_26_1714,59.9631175573,duckFrog,001,7,
duck,wnL.wav,20,landoltCTop.png,V1,frogFront.png,duckFront.png,HcongWN,h,-20,landoltCR.png,,,,,1,7,87,1,,,h,0,1.1011152182,,,2020_Feb_26_1714,59.9631175573,duckFrog,001,7,
duck,wnR.wav,-20,landoltCL.png,V1,duckFront.png,frogFront.png,HcongWN,b,20,landoltCBottom.png,,,,,1,8,88,77,,,b,0,0.833972367342,,,2020_Feb_26_1714,59.9631175573,duckFrog,001,7,
duck,ribbitL.wav,-20,landoltCR.png,V1,duckFront.png,frogFront.png,HinCong,h,20,landoltCTop.png,,,,,1,9,89,70,,,h,0,1.0010091361,,,2020_Feb_26_1714,59.9631175573,duckFrog,001,7,
duck,wnL.wav,-20,landoltCL.png,V1,duckFront.png,frogFront.png,HinCongWN,h,20,landoltCTop.png,,,,,1,10,90,7,,,h,0,0.984316785893,,,2020_Feb_26_1714,59.9631175573,duckFrog,001,7,
duck,wnL.wav,-20,landoltCL.png,V1,duckFront.png,frogFront.png,HinCongWN,h,20,landoltCTop.png,,,,,1,11,91,55,,,h,0,0.617570038376,,,2020_Feb_26_1714,59.9631175573,duckFrog,001,7,
duck,ribbitR.wav,20,landoltCTop.png,V1,frogFront.png,duckFront.png,HinCong,h,-20,landoltCL.png,,,,,1,12,92,34,,,h,0,1.1842056453,,,2020_Feb_26_1714,59.9631175573,duckFrog,001,7,
duck,quackR.wav,-20,landoltCR.png,V1,duckFront.png,frogFront.png,Hcong,b,20,landoltCBottom.png,,,,,1,13,93,76,,,b,0,0.784137245442,,,2020_Feb_26_1714,59.9631175573,duckFrog,001,7,
duck,quackL.wav,20,landoltCTop.png,V1,frogFront.png,duckFront.png,Hcong,h,-20,landoltCL.png,,,,,1,14,94,48,,,h,0,1.13419347555,,,2020_Feb_26_1714,59.9631175573,duckFrog,001,7,
duck,ribbitL.wav,-20,landoltCR.png,V1,duckFront.png,frogFront.png,HinCong,b,20,landoltCBottom.png,,,,,1,15,95,78,,,b,0,1.18442997923,,,2020_Feb_26_1714,59.9631175573,duckFrog,001,7,
duck,quackR.wav,-20,landoltCR.png,V1,duckFront.png,frogFront.png,Hcong,h,20,landoltCTop.png,,,,,1,16,96,36,,,h,0,0.867379794407,,,2020_Feb_26_1714,59.9631175573,duckFrog,001,7,
duck,quackR.wav,-20,landoltCR.png,V1,duckFront.png,frogFront.png,Hcong,b,20,landoltCBottom.png,,,,,1,17,97,44,,,b,0,1.53480951411,,,2020_Feb_26_1714,59.9631175573,duckFrog,001,7,
duck,ribbitR.wav,20,landoltCBottom.png,V1,frogFront.png,duckFront.png,HinCong,b,-20,landoltCR.png,,,,,1,18,98,74,,,b,0,1.76802149207,,,2020_Feb_26_1714,59.9631175573,duckFrog,001,7,
duck,ribbitL.wav,-20,landoltCR.png,V1,duckFront.png,frogFront.png,HinCong,h,20,landoltCTop.png,,,,,1,19,99,6,,,h,0,1.23424860598,,,2020_Feb_26_1714,59.9631175573,duckFrog,001,7,
frog,wnL.wav,20,landoltCTop.png,V1,duckFront.png,frogFront.png,LcongWN,h,-20,landoltCL.png,,,,,1,20,100,25,,,h,0,1.58452807032,,,2020_Feb_26_1714,59.9631175573,duckFrog,001,7,
duck,ribbitR.wav,20,landoltCTop.png,V1,frogFront.png,duckFront.png,HinCong,h,-20,landoltCL.png,,,,,1,21,101,2,,,h,0,2.06853438102,,,2020_Feb_26_1714,59.9631175573,duckFrog,001,7,
duck,quackL.wav,20,landoltCTop.png,V1,frogFront.png,duckFront.png,Hcong,h,-20,landoltCL.png,,,,,1,22,102,64,,,h,0,1.75162238882,,,2020_Feb_26_1714,59.9631175573,duckFrog,001,7,
frog,ribbitL.wav,20,landoltCBottom.png,V1,duckFront.png,frogFront.png,Lcong,b,-20,landoltCL.png,,,,,1,23,103,16,,,b,0,1.75154944364,,,2020_Feb_26_1714,59.9631175573,duckFrog,001,7,
duck,wnR.wav,-20,landoltCL.png,V1,duckFront.png,frogFront.png,HcongWN,h,20,landoltCTop.png,,,,,1,24,104,69,,,h,0,0.984077056506,,,2020_Feb_26_1714,59.9631175573,duckFrog,001,7,
duck,wnL.wav,20,landoltCBottom.png,V1,frogFront.png,duckFront.png,HcongWN,b,-20,landoltCL.png,,,,,1,25,105,73,,,b,0,1.80135744018,,,2020_Feb_26_1714,59.9631175573,duckFrog,001,7,
frog,wnL.wav,-20,landoltCR.png,V1,frogFront.png,duckFront.png,LinCongWN,h,20,landoltCTop.png,,,,,1,26,106,31,,,h,0,0.950714716149,,,2020_Feb_26_1714,59.9631175573,duckFrog,001,7,
duck,wnR.wav,20,landoltCTop.png,V1,frogFront.png,duckFront.png,HinCongWN,h,-20,landoltCR.png,,,,,1,27,107,67,,,h,0,1.01764283693,,,2020_Feb_26_1714,59.9631175573,duckFrog,001,7,
duck,wnL.wav,-20,landoltCL.png,V1,duckFront.png,frogFront.png,HinCongWN,h,20,landoltCTop.png,,,,,1,28,108,39,,,h,0,0.884005064378,,,2020_Feb_26_1714,59.9631175573,duckFrog,001,7,
duck,wnR.wav,-20,landoltCL.png,V1,duckFront.png,frogFront.png,HcongWN,h,20,landoltCTop.png,,,,,1,29,109,53,,,h,0,0.767458457893,,,2020_Feb_26_1714,59.9631175573,duckFrog,001,7,
duck,quackR.wav,-20,landoltCR.png,V1,duckFront.png,frogFront.png,Hcong,b,20,landoltCBottom.png,,,,,1,30,110,12,,,b,0,1.13445739781,,,2020_Feb_26_1714,59.9631175573,duckFrog,001,7,
frog,ribbitL.wav,20,landoltCTop.png,V1,duckFront.png,frogFront.png,Lcong,h,-20,landoltCR.png,,,,,1,31,111,24,,,h,0,1.8015773754,,,2020_Feb_26_1714,59.9631175573,duckFrog,001,7,
duck,ribbitR.wav,20,landoltCTop.png,V1,frogFront.png,duckFront.png,HinCong,h,-20,landoltCL.png,,,,,1,32,112,50,,,h,0,1.25120377878,,,2020_Feb_26_1714,59.9631175573,duckFrog,001,7,
frog,wnR.wav,-20,landoltCR.png,V1,frogFront.png,duckFront.png,LcongWN,h,20,landoltCTop.png,,,,,1,33,113,29,,,h,0,1.16758440746,,,2020_Feb_26_1714,59.9631175573,duckFrog,001,7,
duck,quackR.wav,-20,landoltCR.png,V1,duckFront.png,frogFront.png,Hcong,b,20,landoltCBottom.png,,,,,1,34,114,60,,,b,0,1.73201626349,,,2020_Feb_26_1714,59.9631175573,duckFrog,001,7,
duck,wnL.wav,20,landoltCTop.png,V1,frogFront.png,duckFront.png,HcongWN,h,-20,landoltCR.png,,,,,1,35,115,65,,,h,0,1.16750009898,,,2020_Feb_26_1714,59.9631175573,duckFrog,001,7,
duck,wnR.wav,20,landoltCBottom.png,V1,frogFront.png,duckFront.png,HinCongWN,b,-20,landoltCL.png,,,,,1,36,116,43,,,b,0,1.06770339241,,,2020_Feb_26_1714,59.9631175573,duckFrog,001,7,
duck,ribbitR.wav,20,landoltCBottom.png,V1,frogFront.png,duckFront.png,HinCong,b,-20,landoltCR.png,,,,,1,37,117,58,,,b,0,1.03450930252,,,2020_Feb_26_1714,59.9631175573,duckFrog,001,7,
frog,quackR.wav,20,landoltCTop.png,V1,duckFront.png,frogFront.png,LinCong,h,-20,landoltCR.png,,,,,1,38,118,26,,,b,0,1.43482659574,,,2020_Feb_26_1714,59.9631175573,duckFrog,001,7,
duck,wnL.wav,20,landoltCBottom.png,V1,frogFront.png,duckFront.png,HcongWN,b,-20,landoltCL.png,,,,,1,39,119,57,,,b,0,1.26792215466,,,2020_Feb_26_1714,59.9631175573,duckFrog,001,7,
duck,ribbitL.wav,-20,landoltCR.png,V1,duckFront.png,frogFront.png,HinCong,h,20,landoltCTop.png,,,,,1,40,120,38,,,h,0,0.883866505188,,,2020_Feb_26_1714,59.9631175573,duckFrog,001,7,
frog,quackL.wav,-20,landoltCL.png,V1,frogFront.png,duckFront.png,LinCong,b,20,landoltCBottom.png,,,,,1,41,121,22,,,b,0,1.30120898392,,,2020_Feb_26_1714,59.9631175573,duckFrog,001,7,
duck,quackR.wav,-20,landoltCR.png,V1,duckFront.png,frogFront.png,Hcong,h,20,landoltCTop.png,,,,,1,42,122,52,,,h,0,1.48469690727,,,2020_Feb_26_1714,59.9631175573,duckFrog,001,7,
duck,wnL.wav,-20,landoltCL.png,V1,duckFront.png,frogFront.png,HinCongWN,h,20,landoltCTop.png,,,,,1,43,123,71,,,h,0,1.23471853422,,,2020_Feb_26_1714,59.9631175573,duckFrog,001,7,
duck,ribbitL.wav,-20,landoltCR.png,V1,duckFront.png,frogFront.png,HinCong,h,20,landoltCTop.png,,,,,1,44,124,54,,,h,0,0.750805696021,,,2020_Feb_26_1714,59.9631175573,duckFrog,001,7,
duck,quackL.wav,20,landoltCBottom.png,V1,frogFront.png,duckFront.png,Hcong,b,-20,landoltCR.png,,,,,1,45,125,72,,,b,0,0.983826696902,,,2020_Feb_26_1714,59.9631175573,duckFrog,001,7,
frog,wnR.wav,20,landoltCTop.png,V1,duckFront.png,frogFront.png,LinCongWN,h,-20,landoltCL.png,,,,,1,46,126,27,,,h,0,1.31810367454,,,2020_Feb_26_1714,59.9631175573,duckFrog,001,7,
duck,quackR.wav,-20,landoltCR.png,V1,duckFront.png,frogFront.png,Hcong,h,20,landoltCTop.png,,,,,1,47,127,68,,,h,0,1.33431216725,,,2020_Feb_26_1714,59.9631175573,duckFrog,001,7,
duck,ribbitL.wav,-20,landoltCR.png,V1,duckFront.png,frogFront.png,HinCong,b,20,landoltCBottom.png,,,,,1,48,128,62,,,b,0,1.55184276392,,,2020_Feb_26_1714,59.9631175573,duckFrog,001,7,
duck,wnR.wav,20,landoltCTop.png,V1,frogFront.png,duckFront.png,HinCongWN,h,-20,landoltCR.png,,,,,1,49,129,3,,,h,0,1.23425483747,,,2020_Feb_26_1714,59.9631175573,duckFrog,001,7,
frog,ribbitR.wav,-20,landoltCL.png,V1,frogFront.png,duckFront.png,Lcong,h,20,landoltCTop.png,,,,,1,50,130,28,,,h,0,1.5346533601,,,2020_Feb_26_1714,59.9631175573,duckFrog,001,7,
duck,wnR.wav,-20,landoltCL.png,V1,duckFront.png,frogFront.png,HcongWN,b,20,landoltCBottom.png,,,,,1,51,131,13,,,b,0,1.35123178386,,,2020_Feb_26_1714,59.9631175573,duckFrog,001,7,
duck,ribbitR.wav,20,landoltCTop.png,V1,frogFront.png,duckFront.png,HinCong,h,-20,landoltCL.png,,,,,1,52,132,66,,,h,0,1.10082087156,,,2020_Feb_26_1714,59.9631175573,duckFrog,001,7,
duck,wnR.wav,-20,landoltCL.png,V1,duckFront.png,frogFront.png,HcongWN,h,20,landoltCTop.png,,,,,1,53,133,5,,,h,0,1.13379099409,,,2020_Feb_26_1714,59.9631175573,duckFrog,001,7,
duck,wnR.wav,-20,landoltCL.png,V1,duckFront.png,frogFront.png,HcongWN,b,20,landoltCBottom.png,,,,,1,54,134,61,,,b,0,1.83498883461,,,2020_Feb_26_1714,59.9631175573,duckFrog,001,7,
frog,wnR.wav,20,landoltCBottom.png,V1,duckFront.png,frogFront.png,LinCongWN,b,-20,landoltCR.png,,,,,1,55,135,19,,,b,0,2.58534622935,,,2020_Feb_26_1714,59.9631175573,duckFrog,001,7,
duck,ribbitR.wav,20,landoltCBottom.png,V1,frogFront.png,duckFront.png,HinCong,b,-20,landoltCR.png,,,,,1,56,136,42,,,b,0,1.43468070538,,,2020_Feb_26_1714,59.9631175573,duckFrog,001,7,
duck,quackL.wav,20,landoltCBottom.png,V1,frogFront.png,duckFront.png,Hcong,b,-20,landoltCR.png,,,,,1,57,137,40,,,b,0,0.734103448718,,,2020_Feb_26_1714,59.9631175573,duckFrog,001,7,
duck,wnL.wav,20,landoltCBottom.png,V1,frogFront.png,duckFront.png,HcongWN,b,-20,landoltCL.png,,,,,1,58,138,9,,,b,0,0.483953159666,,,2020_Feb_26_1714,59.9631175573,duckFrog,001,7,
duck,wnL.wav,-20,landoltCL.png,V1,duckFront.png,frogFront.png,HinCongWN,b,20,landoltCBottom.png,,,,,1,59,139,15,,,b,0,1.86808175432,,,2020_Feb_26_1714,59.9631175573,duckFrog,001,7,
frog,quackL.wav,-20,landoltCL.png,V1,frogFront.png,duckFront.png,LinCong,h,20,landoltCTop.png,,,,,1,60,140,30,,,h,0,0.867703465745,,,2020_Feb_26_1714,59.9631175573,duckFrog,001,7,
duck,wnL.wav,-20,landoltCL.png,V1,duckFront.png,frogFront.png,HinCongWN,b,20,landoltCBottom.png,,,,,1,61,141,63,,,b,0,1.06768469793,,,2020_Feb_26_1714,59.9631175573,duckFrog,001,7,
duck,ribbitR.wav,20,landoltCBottom.png,V1,frogFront.png,duckFront.png,HinCong,b,-20,landoltCR.png,,,,,1,62,142,10,,,b,0,0.633804556754,,,2020_Feb_26_1714,59.9631175573,duckFrog,001,7,
duck,wnR.wav,20,landoltCTop.png,V1,frogFront.png,duckFront.png,HinCongWN,h,-20,landoltCR.png,,,,,1,63,143,51,,,h,0,1.41793557072,,,2020_Feb_26_1714,59.9631175573,duckFrog,001,7,
frog,wnL.wav,-20,landoltCR.png,V1,frogFront.png,duckFront.png,LinCongWN,b,20,landoltCBottom.png,,,,,1,64,144,23,,,b,0,1.35116910233,,,2020_Feb_26_1714,59.9631175573,duckFrog,001,7,
frog,quackR.wav,20,landoltCBottom.png,V1,duckFront.png,frogFront.png,LinCong,b,-20,landoltCL.png,,,,,1,65,145,18,,,b,0,1.2017590419,,,2020_Feb_26_1714,59.9631175573,duckFrog,001,7,
frog,wnL.wav,20,landoltCBottom.png,V1,duckFront.png,frogFront.png,LcongWN,b,-20,landoltCR.png,,,,,1,66,146,17,,,b,0,1.25118251838,,,2020_Feb_26_1714,59.9631175573,duckFrog,001,7,
duck,wnR.wav,-20,landoltCL.png,V1,duckFront.png,frogFront.png,HcongWN,h,20,landoltCTop.png,,,,,1,67,147,37,,,h,0,2.151689689,,,2020_Feb_26_1714,59.9631175573,duckFrog,001,7,
duck,wnR.wav,20,landoltCTop.png,V1,frogFront.png,duckFront.png,HinCongWN,h,-20,landoltCR.png,,,,,1,68,148,35,,,h,0,2.23501324742,,,2020_Feb_26_1714,59.9631175573,duckFrog,001,7,
duck,wnL.wav,20,landoltCTop.png,V1,frogFront.png,duckFront.png,HcongWN,h,-20,landoltCR.png,,,,,1,69,149,33,,,h,0,1.86836913634,,,2020_Feb_26_1714,59.9631175573,duckFrog,001,7,
frog,ribbitR.wav,-20,landoltCL.png,V1,frogFront.png,duckFront.png,Lcong,b,20,landoltCBottom.png,,,,,1,70,150,20,,,b,0,1.21756615285,,,2020_Feb_26_1714,59.9631175573,duckFrog,001,7,
duck,wnL.wav,20,landoltCTop.png,V1,frogFront.png,duckFront.png,HcongWN,h,-20,landoltCR.png,,,,,1,71,151,49,,,h,0,1.58461971,,,2020_Feb_26_1714,59.9631175573,duckFrog,001,7,
duck,wnR.wav,20,landoltCBottom.png,V1,frogFront.png,duckFront.png,HinCongWN,b,-20,landoltCL.png,,,,,1,72,152,11,,,b,0,2.01848592196,,,2020_Feb_26_1714,59.9631175573,duckFrog,001,7,
duck,wnR.wav,20,landoltCBottom.png,V1,frogFront.png,duckFront.png,HinCongWN,b,-20,landoltCL.png,,,,,1,73,153,75,,,b,0,1.56815939145,,,2020_Feb_26_1714,59.9631175573,duckFrog,001,7,
duck,wnL.wav,20,landoltCBottom.png,V1,frogFront.png,duckFront.png,HcongWN,b,-20,landoltCL.png,,,,,1,74,154,41,,,b,0,1.26790199394,,,2020_Feb_26_1714,59.9631175573,duckFrog,001,7,
frog,wnR.wav,-20,landoltCR.png,V1,frogFront.png,duckFront.png,LcongWN,b,20,landoltCBottom.png,,,,,1,75,155,21,,,b,0,1.11753924744,,,2020_Feb_26_1714,59.9631175573,duckFrog,001,7,
duck,wnL.wav,-20,landoltCL.png,V1,duckFront.png,frogFront.png,HinCongWN,b,20,landoltCBottom.png,,,,,1,76,156,79,,,b,0,1.30126396772,,,2020_Feb_26_1714,59.9631175573,duckFrog,001,7,
duck,ribbitL.wav,-20,landoltCR.png,V1,duckFront.png,frogFront.png,HinCong,b,20,landoltCBottom.png,,,,,1,77,157,14,,,b,0,1.13434779676,,,2020_Feb_26_1714,59.9631175573,duckFrog,001,7,
duck,quackL.wav,20,landoltCTop.png,V1,frogFront.png,duckFront.png,Hcong,h,-20,landoltCL.png,,,,,1,78,158,0,,,h,0,0.900631067459,,,2020_Feb_26_1714,59.9631175573,duckFrog,001,7,
duck,quackL.wav,20,landoltCTop.png,V1,frogFront.png,duckFront.png,Hcong,h,-20,landoltCL.png,,,,,1,79,159,32,,,h,0,1.55145751071,,,2020_Feb_26_1714,59.9631175573,duckFrog,001,7,
duck,ribbitR.wav,20,landoltCTop.png,V1,frogFront.png,duckFront.png,HinCong,h,-20,landoltCL.png,,,,,2,0,160,50,,,h,0,1.6016965803,,,2020_Feb_26_1714,59.9631175573,duckFrog,001,7,
duck,quackR.wav,-20,landoltCR.png,V1,duckFront.png,frogFront.png,Hcong,h,20,landoltCTop.png,,,,,2,1,161,52,,,h,0,0.700615378752,,,2020_Feb_26_1714,59.9631175573,duckFrog,001,7,
duck,wnL.wav,20,landoltCTop.png,V1,frogFront.png,duckFront.png,HcongWN,h,-20,landoltCR.png,,,,,2,2,162,65,,,h,0,1.70124695939,,,2020_Feb_26_1714,59.9631175573,duckFrog,001,7,
duck,wnL.wav,20,landoltCTop.png,V1,frogFront.png,duckFront.png,HcongWN,h,-20,landoltCR.png,,,,,2,3,163,49,,,h,0,1.14396812991,,,2020_Feb_26_1714,59.9631175573,duckFrog,001,7,
duck,wnR.wav,20,landoltCBottom.png,V1,frogFront.png,duckFront.png,HinCongWN,b,-20,landoltCL.png,,,,,2,4,164,59,,,b,0,2.1686111384,,,2020_Feb_26_1714,59.9631175573,duckFrog,001,7,
duck,wnL.wav,-20,landoltCL.png,V1,duckFront.png,frogFront.png,HinCongWN,b,20,landoltCBottom.png,,,,,2,5,165,63,,,b,0,1.8847788698,,,2020_Feb_26_1714,59.9631175573,duckFrog,001,7,
duck,wnR.wav,20,landoltCBottom.png,V1,frogFront.png,duckFront.png,HinCongWN,b,-20,landoltCL.png,,,,,2,6,166,11,,,b,0,0.700719847984,,,2020_Feb_26_1714,59.9631175573,duckFrog,001,7,
frog,wnL.wav,20,landoltCBottom.png,V1,duckFront.png,frogFront.png,LcongWN,b,-20,landoltCR.png,,,,,2,7,167,17,,,b,0,1.20091192475,,,2020_Feb_26_1714,59.9631175573,duckFrog,001,7,
frog,ribbitL.wav,20,landoltCTop.png,V1,duckFront.png,frogFront.png,Lcong,h,-20,landoltCR.png,,,,,2,8,168,24,,,h,0,1.60144438791,,,2020_Feb_26_1714,59.9631175573,duckFrog,001,7,
duck,wnR.wav,20,landoltCBottom.png,V1,frogFront.png,duckFront.png,HinCongWN,b,-20,landoltCL.png,,,,,2,9,169,43,,,b,0,1.10102467821,,,2020_Feb_26_1714,59.9631175573,duckFrog,001,7,
duck,ribbitL.wav,-20,landoltCR.png,V1,duckFront.png,frogFront.png,HinCong,b,20,landoltCBottom.png,,,,,2,10,170,62,,,b,0,1.45108347421,,,2020_Feb_26_1714,59.9631175573,duckFrog,001,7,
frog,ribbitL.wav,20,landoltCBottom.png,V1,duckFront.png,frogFront.png,Lcong,b,-20,landoltCL.png,,,,,2,11,171,16,,,b,0,0.683841285936,,,2020_Feb_26_1714,59.9631175573,duckFrog,001,7,
duck,wnL.wav,-20,landoltCL.png,V1,duckFront.png,frogFront.png,HinCongWN,b,20,landoltCBottom.png,,,,,2,12,172,47,,,b,0,2.25175105092,,,2020_Feb_26_1714,59.9631175573,duckFrog,001,7,
duck,quackR.wav,-20,landoltCR.png,V1,duckFront.png,frogFront.png,Hcong,b,20,landoltCBottom.png,,,,,2,13,173,12,,,b,0,0.801132373148,,,2020_Feb_26_1714,59.9631175573,duckFrog,001,7,
duck,quackL.wav,20,landoltCTop.png,V1,frogFront.png,duckFront.png,Hcong,h,-20,landoltCL.png,,,,,2,14,174,32,,,h,0,1.00076757392,,,2020_Feb_26_1714,59.9631175573,duckFrog,001,7,
frog,wnR.wav,-20,landoltCR.png,V1,frogFront.png,duckFront.png,LcongWN,b,20,landoltCBottom.png,,,,,2,15,175,21,,,b,0,1.5513369129,,,2020_Feb_26_1714,59.9631175573,duckFrog,001,7,
duck,ribbitL.wav,-20,landoltCR.png,V1,duckFront.png,frogFront.png,HinCong,h,20,landoltCTop.png,,,,,2,16,176,54,,,h,0,1.00122283984,,,2020_Feb_26_1714,59.9631175573,duckFrog,001,7,
duck,quackL.wav,20,landoltCTop.png,V1,frogFront.png,duckFront.png,Hcong,h,-20,landoltCL.png,,,,,2,17,177,64,,,h,0,1.00095158639,,,2020_Feb_26_1714,59.9631175573,duckFrog,001,7,
duck,wnR.wav,-20,landoltCL.png,V1,duckFront.png,frogFront.png,HcongWN,h,20,landoltCTop.png,,,,,2,18,178,37,,,h,0,1.05077021314,,,2020_Feb_26_1714,59.9631175573,duckFrog,001,7,
duck,wnL.wav,-20,landoltCL.png,V1,duckFront.png,frogFront.png,HinCongWN,b,20,landoltCBottom.png,,,,,2,19,179,15,,,b,0,1.26804568495,,,2020_Feb_26_1714,59.9631175573,duckFrog,001,7,
duck,ribbitL.wav,-20,landoltCR.png,V1,duckFront.png,frogFront.png,HinCong,b,20,landoltCBottom.png,,,,,2,20,180,46,,,b,0,1.81829611784,,,2020_Feb_26_1714,59.9631175573,duckFrog,001,7,
duck,wnR.wav,-20,landoltCL.png,V1,duckFront.png,frogFront.png,HcongWN,b,20,landoltCBottom.png,,,,,2,21,181,61,,,b,0,1.58477293156,,,2020_Feb_26_1714,59.9631175573,duckFrog,001,7,
duck,wnL.wav,-20,landoltCL.png,V1,duckFront.png,frogFront.png,HinCongWN,h,20,landoltCTop.png,,,,,2,22,182,7,,,h,0,1.71826737965,,,2020_Feb_26_1714,59.9631175573,duckFrog,001,7,
frog,wnL.wav,-20,landoltCR.png,V1,frogFront.png,duckFront.png,LinCongWN,b,20,landoltCBottom.png,,,,,2,23,183,23,,,b,0,2.16859061111,,,2020_Feb_26_1714,59.9631175573,duckFrog,001,7,
frog,wnL.wav,20,landoltCTop.png,V1,duckFront.png,frogFront.png,LcongWN,h,-20,landoltCL.png,,,,,2,24,184,25,,,h,0,1.28447301322,,,2020_Feb_26_1714,59.9631175573,duckFrog,001,7,
duck,quackL.wav,20,landoltCBottom.png,V1,frogFront.png,duckFront.png,Hcong,b,-20,landoltCR.png,,,,,2,25,185,72,,,b,0,1.31796694813,,,2020_Feb_26_1714,59.9631175573,duckFrog,001,7,
duck,wnL.wav,20,landoltCTop.png,V1,frogFront.png,duckFront.png,HcongWN,h,-20,landoltCR.png,,,,,2,26,186,1,,,h,0,1.10105033731,,,2020_Feb_26_1714,59.9631175573,duckFrog,001,7,
duck,wnR.wav,-20,landoltCL.png,V1,duckFront.png,frogFront.png,HcongWN,h,20,landoltCTop.png,,,,,2,27,187,5,,,h,0,1.76796540858,,,2020_Feb_26_1714,59.9631175573,duckFrog,001,7,
duck,wnL.wav,20,landoltCBottom.png,V1,frogFront.png,duckFront.png,HcongWN,b,-20,landoltCL.png,,,,,2,28,188,9,,,b,0,1.11769540145,,,2020_Feb_26_1714,59.9631175573,duckFrog,001,7,
duck,ribbitR.wav,20,landoltCTop.png,V1,frogFront.png,duckFront.png,HinCong,h,-20,landoltCL.png,,,,,2,29,189,66,,,h,0,1.03452873015,,,2020_Feb_26_1714,59.9631175573,duckFrog,001,7,
duck,quackL.wav,20,landoltCTop.png,V1,frogFront.png,duckFront.png,Hcong,h,-20,landoltCL.png,,,,,2,30,190,0,,,h,0,1.35145025286,,,2020_Feb_26_1714,59.9631175573,duckFrog,001,7,
duck,wnR.wav,20,landoltCTop.png,V1,frogFront.png,duckFront.png,HinCongWN,h,-20,landoltCR.png,,,,,2,31,191,67,,,h,0,1.30127679727,,,2020_Feb_26_1714,59.9631175573,duckFrog,001,7,
duck,quackL.wav,20,landoltCBottom.png,V1,frogFront.png,duckFront.png,Hcong,b,-20,landoltCR.png,,,,,2,32,192,40,,,b,0,1.0343454508,,,2020_Feb_26_1714,59.9631175573,duckFrog,001,7,
duck,wnL.wav,20,landoltCBottom.png,V1,frogFront.png,duckFront.png,HcongWN,b,-20,landoltCL.png,,,,,2,33,193,57,,,b,0,1.61840212662,,,2020_Feb_26_1714,59.9631175573,duckFrog,001,7,
duck,wnR.wav,20,landoltCTop.png,V1,frogFront.png,duckFront.png,HinCongWN,h,-20,landoltCR.png,,,,,2,34,194,3,,,h,0,1.11777567781,,,2020_Feb_26_1714,59.9631175573,duckFrog,001,7,
duck,quackR.wav,-20,landoltCR.png,V1,duckFront.png,frogFront.png,Hcong,b,20,landoltCBottom.png,,,,,2,35,195,60,,,b,0,1.25094865392,,,2020_Feb_26_1714,59.9631175573,duckFrog,001,7,
duck,quackR.wav,-20,landoltCR.png,V1,duckFront.png,frogFront.png,Hcong,h,20,landoltCTop.png,,,,,2,36,196,4,,,h,0,1.45136719066,,,2020_Feb_26_1714,59.9631175573,duckFrog,001,7,
frog,quackR.wav,20,landoltCBottom.png,V1,duckFront.png,frogFront.png,LinCong,b,-20,landoltCL.png,,,,,2,37,197,18,,,b,0,1.70144600078,,,2020_Feb_26_1714,59.9631175573,duckFrog,001,7,
duck,quackL.wav,20,landoltCTop.png,V1,frogFront.png,duckFront.png,Hcong,h,-20,landoltCL.png,,,,,2,38,198,48,,,h,0,0.834189736663,,,2020_Feb_26_1714,59.9631175573,duckFrog,001,7,
duck,wnL.wav,20,landoltCBottom.png,V1,frogFront.png,duckFront.png,HcongWN,b,-20,landoltCL.png,,,,,2,39,199,41,,,b,0,0.617438443805,,,2020_Feb_26_1714,59.9631175573,duckFrog,001,7,
duck,wnL.wav,-20,landoltCL.png,V1,duckFront.png,frogFront.png,HinCongWN,h,20,landoltCTop.png,,,,,2,40,200,39,,,b,0,0.750721754084,,,2020_Feb_26_1714,59.9631175573,duckFrog,001,7,
duck,ribbitL.wav,-20,landoltCR.png,V1,duckFront.png,frogFront.png,HinCong,h,20,landoltCTop.png,,,,,2,41,201,38,,,h,0,0.717408899174,,,2020_Feb_26_1714,59.9631175573,duckFrog,001,7,
duck,wnL.wav,20,landoltCBottom.png,V1,frogFront.png,duckFront.png,HcongWN,b,-20,landoltCL.png,,,,,2,42,202,73,,,b,0,0.800547345454,,,2020_Feb_26_1714,59.9631175573,duckFrog,001,7,
frog,wnR.wav,20,landoltCTop.png,V1,duckFront.png,frogFront.png,LinCongWN,h,-20,landoltCL.png,,,,,2,43,203,27,,,h,0,1.31785808021,,,2020_Feb_26_1714,59.9631175573,duckFrog,001,7,
duck,ribbitR.wav,20,landoltCBottom.png,V1,frogFront.png,duckFront.png,HinCong,b,-20,landoltCR.png,,,,,2,44,204,58,,,b,0,1.8850299625,,,2020_Feb_26_1714,59.9631175573,duckFrog,001,7,
duck,wnL.wav,-20,landoltCL.png,V1,duckFront.png,frogFront.png,HinCongWN,b,20,landoltCBottom.png,,,,,2,45,205,79,,,h,0,0.833954039408,,,2020_Feb_26_1714,59.9631175573,duckFrog,001,7,
duck,wnR.wav,20,landoltCTop.png,V1,frogFront.png,duckFront.png,HinCongWN,h,-20,landoltCR.png,,,,,2,46,206,51,,,h,0,2.85217237349,,,2020_Feb_26_1714,59.9631175573,duckFrog,001,7,
duck,ribbitL.wav,-20,landoltCR.png,V1,duckFront.png,frogFront.png,HinCong,b,20,landoltCBottom.png,,,,,2,47,207,14,,,b,0,0.833923248472,,,2020_Feb_26_1714,59.9631175573,duckFrog,001,7,
duck,ribbitL.wav,-20,landoltCR.png,V1,duckFront.png,frogFront.png,HinCong,h,20,landoltCTop.png,,,,,2,48,208,70,,,h,0,0.95282169558,,,2020_Feb_26_1714,59.9631175573,duckFrog,001,7,
frog,quackR.wav,20,landoltCTop.png,V1,duckFront.png,frogFront.png,LinCong,h,-20,landoltCR.png,,,,,2,49,209,26,,,h,0,1.26775500389,,,2020_Feb_26_1714,59.9631175573,duckFrog,001,7,
duck,quackL.wav,20,landoltCBottom.png,V1,frogFront.png,duckFront.png,Hcong,b,-20,landoltCR.png,,,,,2,50,210,56,,,b,0,0.567266454455,,,2020_Feb_26_1714,59.9631175573,duckFrog,001,7,
duck,wnL.wav,20,landoltCTop.png,V1,frogFront.png,duckFront.png,HcongWN,h,-20,landoltCR.png,,,,,2,51,211,33,,,h,0,0.851063899987,,,2020_Feb_26_1714,59.9631175573,duckFrog,001,7,
frog,wnL.wav,-20,landoltCR.png,V1,frogFront.png,duckFront.png,LinCongWN,h,20,landoltCTop.png,,,,,2,52,212,31,,,h,0,1.184210044,,,2020_Feb_26_1714,59.9631175573,duckFrog,001,7,
duck,wnR.wav,-20,landoltCL.png,V1,duckFront.png,frogFront.png,HcongWN,b,20,landoltCBottom.png,,,,,2,53,213,45,,,b,0,2.81922571071,,,2020_Feb_26_1714,59.9631175573,duckFrog,001,7,
duck,wnR.wav,20,landoltCBottom.png,V1,frogFront.png,duckFront.png,HinCongWN,b,-20,landoltCL.png,,,,,2,54,214,75,,,b,0,1.13426642073,,,2020_Feb_26_1714,59.9631175573,duckFrog,001,7,
frog,wnR.wav,20,landoltCBottom.png,V1,duckFront.png,frogFront.png,LinCongWN,b,-20,landoltCR.png,,,,,2,55,215,19,,,b,0,1.61843035165,,,2020_Feb_26_1714,59.9631175573,duckFrog,001,7,
duck,wnR.wav,20,landoltCTop.png,V1,frogFront.png,duckFront.png,HinCongWN,h,-20,landoltCR.png,,,,,2,56,216,35,,,h,0,0.550921601898,,,2020_Feb_26_1714,59.9631175573,duckFrog,001,7,
duck,wnL.wav,-20,landoltCL.png,V1,duckFront.png,frogFront.png,HinCongWN,h,20,landoltCTop.png,,,,,2,57,217,55,,,h,0,0.767225693126,,,2020_Feb_26_1714,59.9631175573,duckFrog,001,7,
duck,quackR.wav,-20,landoltCR.png,V1,duckFront.png,frogFront.png,Hcong,h,20,landoltCTop.png,,,,,2,58,218,36,,,h,0,0.750955251991,,,2020_Feb_26_1714,59.9631175573,duckFrog,001,7,
duck,ribbitL.wav,-20,landoltCR.png,V1,duckFront.png,frogFront.png,HinCong,h,20,landoltCTop.png,,,,,2,59,219,6,,,h,0,0.767411904948,,,2020_Feb_26_1714,59.9631175573,duckFrog,001,7,
frog,quackL.wav,-20,landoltCL.png,V1,frogFront.png,duckFront.png,LinCong,h,20,landoltCTop.png,,,,,2,60,220,30,,,h,0,0.667389398252,,,2020_Feb_26_1714,59.9631175573,duckFrog,001,7,
duck,ribbitR.wav,20,landoltCBottom.png,V1,frogFront.png,duckFront.png,HinCong,b,-20,landoltCR.png,,,,,2,61,221,74,,,b,0,1.6842294716,,,2020_Feb_26_1714,59.9631175573,duckFrog,001,7,
duck,ribbitL.wav,-20,landoltCR.png,V1,duckFront.png,frogFront.png,HinCong,b,20,landoltCBottom.png,,,,,2,62,222,78,,,b,0,1.18418988326,,,2020_Feb_26_1714,59.9631175573,duckFrog,001,7,
duck,ribbitR.wav,20,landoltCBottom.png,V1,frogFront.png,duckFront.png,HinCong,b,-20,landoltCR.png,,,,,2,63,223,10,,,b,0,0.800215609823,,,2020_Feb_26_1714,59.9631175573,duckFrog,001,7,
frog,quackL.wav,-20,landoltCL.png,V1,frogFront.png,duckFront.png,LinCong,b,20,landoltCBottom.png,,,,,2,64,224,22,,,b,0,1.38434119872,,,2020_Feb_26_1714,59.9631175573,duckFrog,001,7,
duck,wnR.wav,-20,landoltCL.png,V1,duckFront.png,frogFront.png,HcongWN,h,20,landoltCTop.png,,,,,2,65,225,53,,,h,0,0.801033768847,,,2020_Feb_26_1714,59.9631175573,duckFrog,001,7,
duck,ribbitR.wav,20,landoltCTop.png,V1,frogFront.png,duckFront.png,HinCong,h,-20,landoltCL.png,,,,,2,66,226,34,,,h,0,1.16750413112,,,2020_Feb_26_1714,59.9631175573,duckFrog,001,7,
duck,quackR.wav,-20,landoltCR.png,V1,duckFront.png,frogFront.png,Hcong,b,20,landoltCBottom.png,,,,,2,67,227,44,,,b,0,1.96808300063,,,2020_Feb_26_1714,59.9631175573,duckFrog,001,7,
frog,ribbitR.wav,-20,landoltCL.png,V1,frogFront.png,duckFront.png,Lcong,b,20,landoltCBottom.png,,,,,2,68,228,20,,,h,0,0.867744520321,,,2020_Feb_26_1714,59.9631175573,duckFrog,001,7,
duck,quackL.wav,20,landoltCBottom.png,V1,frogFront.png,duckFront.png,Hcong,b,-20,landoltCR.png,,,,,2,69,229,8,,,b,0,0.934109606926,,,2020_Feb_26_1714,59.9631175573,duckFrog,001,7,
duck,quackR.wav,-20,landoltCR.png,V1,duckFront.png,frogFront.png,Hcong,h,20,landoltCTop.png,,,,,2,70,230,68,,,h,0,1.70149511965,,,2020_Feb_26_1714,59.9631175573,duckFrog,001,7,
duck,wnR.wav,-20,landoltCL.png,V1,duckFront.png,frogFront.png,HcongWN,b,20,landoltCBottom.png,,,,,2,71,231,13,,,b,0,1.06758865956,,,2020_Feb_26_1714,59.9631175573,duckFrog,001,7,
duck,wnR.wav,-20,landoltCL.png,V1,duckFront.png,frogFront.png,HcongWN,h,20,landoltCTop.png,,,,,2,72,232,69,,,h,0,0.984351975538,,,2020_Feb_26_1714,59.9631175573,duckFrog,001,7,
duck,wnL.wav,-20,landoltCL.png,V1,duckFront.png,frogFront.png,HinCongWN,h,20,landoltCTop.png,,,,,2,73,233,71,,,h,0,0.550662811453,,,2020_Feb_26_1714,59.9631175573,duckFrog,001,7,
frog,ribbitR.wav,-20,landoltCL.png,V1,frogFront.png,duckFront.png,Lcong,h,20,landoltCTop.png,,,,,2,74,234,28,,,h,0,0.583991428386,,,2020_Feb_26_1714,59.9631175573,duckFrog,001,7,
duck,wnR.wav,-20,landoltCL.png,V1,duckFront.png,frogFront.png,HcongWN,b,20,landoltCBottom.png,,,,,2,75,235,77,,,b,0,1.40133889232,,,2020_Feb_26_1714,59.9631175573,duckFrog,001,7,
duck,quackR.wav,-20,landoltCR.png,V1,duckFront.png,frogFront.png,Hcong,b,20,landoltCBottom.png,,,,,2,76,236,76,,,b,0,1.05097951816,,,2020_Feb_26_1714,59.9631175573,duckFrog,001,7,
duck,ribbitR.wav,20,landoltCTop.png,V1,frogFront.png,duckFront.png,HinCong,h,-20,landoltCL.png,,,,,2,77,237,2,,,b,0,0.71716880321,,,2020_Feb_26_1714,59.9631175573,duckFrog,001,7,
duck,ribbitR.wav,20,landoltCBottom.png,V1,frogFront.png,duckFront.png,HinCong,b,-20,landoltCR.png,,,,,2,78,238,42,,,b,0,1.38466633628,,,2020_Feb_26_1714,59.9631175573,duckFrog,001,7,
frog,wnR.wav,-20,landoltCR.png,V1,frogFront.png,duckFront.png,LcongWN,h,20,landoltCTop.png,,,,,2,79,239,29,,,h,0,0.984012175613,,,2020_Feb_26_1714,59.9631175573,duckFrog,001,7,
frog,ribbitR.wav,-20,landoltCL.png,V1,frogFront.png,duckFront.png,Lcong,h,20,landoltCTop.png,,,,,3,0,240,28,,,h,0,0.967622236334,,,2020_Feb_26_1714,59.9631175573,duckFrog,001,7,
duck,wnR.wav,-20,landoltCL.png,V1,duckFront.png,frogFront.png,HcongWN,b,20,landoltCBottom.png,,,,,3,1,241,45,,,b,0,0.550784142368,,,2020_Feb_26_1714,59.9631175573,duckFrog,001,7,
duck,wnL.wav,-20,landoltCL.png,V1,duckFront.png,frogFront.png,HinCongWN,b,20,landoltCBottom.png,,,,,3,2,242,63,,,b,0,0.583984830344,,,2020_Feb_26_1714,59.9631175573,duckFrog,001,7,
duck,ribbitL.wav,-20,landoltCR.png,V1,duckFront.png,frogFront.png,HinCong,b,20,landoltCBottom.png,,,,,3,3,243,78,,,b,0,0.4672230539,,,2020_Feb_26_1714,59.9631175573,duckFrog,001,7,
duck,wnR.wav,-20,landoltCL.png,V1,duckFront.png,frogFront.png,HcongWN,h,20,landoltCTop.png,,,,,3,4,244,5,,,h,0,0.800825563507,,,2020_Feb_26_1714,59.9631175573,duckFrog,001,7,
duck,wnL.wav,20,landoltCTop.png,V1,frogFront.png,duckFront.png,HcongWN,h,-20,landoltCR.png,,,,,3,5,245,1,,,h,0,0.884007630288,,,2020_Feb_26_1714,59.9631175573,duckFrog,001,7,
duck,wnR.wav,-20,landoltCL.png,V1,duckFront.png,frogFront.png,HcongWN,h,20,landoltCTop.png,,,,,3,6,246,53,,,h,0,0.683669736478,,,2020_Feb_26_1714,59.9631175573,duckFrog,001,7,
frog,quackR.wav,20,landoltCBottom.png,V1,duckFront.png,frogFront.png,LinCong,b,-20,landoltCL.png,,,,,3,7,247,18,,,b,0,1.43445783768,,,2020_Feb_26_1714,59.9631175573,duckFrog,001,7,
duck,wnL.wav,-20,landoltCL.png,V1,duckFront.png,frogFront.png,HinCongWN,b,20,landoltCBottom.png,,,,,3,8,248,15,,,b,0,0.500440603559,,,2020_Feb_26_1714,59.9631175573,duckFrog,001,7,
duck,wnR.wav,-20,landoltCL.png,V1,duckFront.png,frogFront.png,HcongWN,b,20,landoltCBottom.png,,,,,3,9,249,61,,,b,0,1.20110436805,,,2020_Feb_26_1714,59.9631175573,duckFrog,001,7,
duck,quackL.wav,20,landoltCBottom.png,V1,frogFront.png,duckFront.png,Hcong,b,-20,landoltCR.png,,,,,3,10,250,56,,,b,0,0.517152014829,,,2020_Feb_26_1714,59.9631175573,duckFrog,001,7,
frog,wnL.wav,-20,landoltCR.png,V1,frogFront.png,duckFront.png,LinCongWN,h,20,landoltCTop.png,,,,,3,11,251,31,,,h,0,1.00076464145,,,2020_Feb_26_1714,59.9631175573,duckFrog,001,7,
duck,wnR.wav,-20,landoltCL.png,V1,duckFront.png,frogFront.png,HcongWN,b,20,landoltCBottom.png,,,,,3,12,252,13,,,b,0,0.634038787772,,,2020_Feb_26_1714,59.9631175573,duckFrog,001,7,
duck,wnR.wav,20,landoltCTop.png,V1,frogFront.png,duckFront.png,HinCongWN,h,-20,landoltCR.png,,,,,3,13,253,3,,,h,0,1.00102159911,,,2020_Feb_26_1714,59.9631175573,duckFrog,001,7,
frog,ribbitL.wav,20,landoltCBottom.png,V1,duckFront.png,frogFront.png,Lcong,b,-20,landoltCL.png,,,,,3,14,254,16,,,b,0,0.80084829015,,,2020_Feb_26_1714,59.9631175573,duckFrog,001,7,
frog,wnL.wav,-20,landoltCR.png,V1,frogFront.png,duckFront.png,LinCongWN,b,20,landoltCBottom.png,,,,,3,15,255,23,,,b,0,1.78470284553,,,2020_Feb_26_1714,59.9631175573,duckFrog,001,7,
frog,quackL.wav,-20,landoltCL.png,V1,frogFront.png,duckFront.png,LinCong,h,20,landoltCTop.png,,,,,3,16,256,30,,,h,0,1.48470167253,,,2020_Feb_26_1714,59.9631175573,duckFrog,001,7,
duck,wnR.wav,20,landoltCBottom.png,V1,frogFront.png,duckFront.png,HinCongWN,b,-20,landoltCL.png,,,,,3,17,257,11,,,b,0,1.00076464145,,,2020_Feb_26_1714,59.9631175573,duckFrog,001,7,
duck,quackR.wav,-20,landoltCR.png,V1,duckFront.png,frogFront.png,Hcong,b,20,landoltCBottom.png,,,,,3,18,258,60,,,b,0,1.13415352064,,,2020_Feb_26_1714,59.9631175573,duckFrog,001,7,
duck,ribbitL.wav,-20,landoltCR.png,V1,duckFront.png,frogFront.png,HinCong,h,20,landoltCTop.png,,,,,3,19,259,70,,,h,0,0.734094651314,,,2020_Feb_26_1714,59.9631175573,duckFrog,001,7,
duck,ribbitR.wav,20,landoltCBottom.png,V1,frogFront.png,duckFront.png,HinCong,b,-20,landoltCR.png,,,,,3,20,260,58,,,b,0,0.917123276624,,,2020_Feb_26_1714,59.9631175573,duckFrog,001,7,
duck,wnL.wav,-20,landoltCL.png,V1,duckFront.png,frogFront.png,HinCongWN,b,20,landoltCBottom.png,,,,,3,21,261,47,,,b,0,1.00049485425,,,2020_Feb_26_1714,59.9631175573,duckFrog,001,7,
frog,wnL.wav,20,landoltCTop.png,V1,duckFront.png,frogFront.png,LcongWN,h,-20,landoltCL.png,,,,,3,22,262,25,,,h,0,0.86751688736,,,2020_Feb_26_1714,59.9631175573,duckFrog,001,7,
frog,quackR.wav,20,landoltCTop.png,V1,duckFront.png,frogFront.png,LinCong,h,-20,landoltCR.png,,,,,3,23,263,26,,,h,0,1.41794656747,,,2020_Feb_26_1714,59.9631175573,duckFrog,001,7,
duck,wnR.wav,20,landoltCTop.png,V1,frogFront.png,duckFront.png,HinCongWN,h,-20,landoltCR.png,,,,,3,24,264,51,,,h,0,0.967412931306,,,2020_Feb_26_1714,59.9631175573,duckFrog,001,7,
duck,wnR.wav,20,landoltCTop.png,V1,frogFront.png,duckFront.png,HinCongWN,h,-20,landoltCR.png,,,,,3,25,265,35,,,h,0,0.500639644946,,,2020_Feb_26_1714,59.9631175573,duckFrog,001,7,
duck,wnR.wav,-20,landoltCL.png,V1,duckFront.png,frogFront.png,HcongWN,b,20,landoltCBottom.png,,,,,3,26,266,77,,,b,0,0.984077423069,,,2020_Feb_26_1714,59.9631175573,duckFrog,001,7,
duck,quackL.wav,20,landoltCBottom.png,V1,frogFront.png,duckFront.png,Hcong,b,-20,landoltCR.png,,,,,3,27,267,72,,,b,0,2.78546748697,,,2020_Feb_26_1714,59.9631175573,duckFrog,001,7,
frog,wnR.wav,-20,landoltCR.png,V1,frogFront.png,duckFront.png,LcongWN,b,20,landoltCBottom.png,,,,,3,28,268,21,,,s,0,6.33842019064,,,2020_Feb_26_1714,59.9631175573,duckFrog,001,7,
duck,wnL.wav,20,landoltCTop.png,V1,frogFront.png,duckFront.png,HcongWN,h,-20,landoltCR.png,,,,,3,29,269,49,,,h,0,1.80160706666,,,2020_Feb_26_1714,59.9631175573,duckFrog,001,7,
duck,wnL.wav,20,landoltCBottom.png,V1,frogFront.png,duckFront.png,HcongWN,b,-20,landoltCL.png,,,,,3,30,270,9,,,b,0,1.30123574271,,,2020_Feb_26_1714,59.9631175573,duckFrog,001,7,
duck,ribbitL.wav,-20,landoltCR.png,V1,duckFront.png,frogFront.png,HinCong,b,20,landoltCBottom.png,,,,,3,31,271,62,,,b,0,1.20085950685,,,2020_Feb_26_1714,59.9631175573,duckFrog,001,7,
duck,wnR.wav,-20,landoltCL.png,V1,duckFront.png,frogFront.png,HcongWN,h,20,landoltCTop.png,,,,,3,32,272,69,,,h,0,1.01769085611,,,2020_Feb_26_1714,59.9631175573,duckFrog,001,7,
duck,quackL.wav,20,landoltCBottom.png,V1,frogFront.png,duckFront.png,Hcong,b,-20,landoltCR.png,,,,,3,33,273,8,,,b,0,0.934039960775,,,2020_Feb_26_1714,59.9631175573,duckFrog,001,7,
duck,quackR.wav,-20,landoltCR.png,V1,duckFront.png,frogFront.png,Hcong,b,20,landoltCBottom.png,,,,,3,34,274,12,,,b,0,1.03381760625,,,2020_Feb_26_1714,59.9631175573,duckFrog,001,7,
duck,quackR.wav,-20,landoltCR.png,V1,duckFront.png,frogFront.png,Hcong,h,20,landoltCTop.png,,,,,3,35,275,36,,,h,0,0.884224999594,,,2020_Feb_26_1714,59.9631175573,duckFrog,001,7,
frog,wnR.wav,20,landoltCBottom.png,V1,duckFront.png,frogFront.png,LinCongWN,b,-20,landoltCR.png,,,,,3,36,276,19,,,b,0,1.30111074618,,,2020_Feb_26_1714,59.9631175573,duckFrog,001,7,
duck,wnR.wav,20,landoltCBottom.png,V1,frogFront.png,duckFront.png,HinCongWN,b,-20,landoltCL.png,,,,,3,37,277,43,,,b,0,1.61817632646,,,2020_Feb_26_1714,59.9631175573,duckFrog,001,7,
duck,ribbitR.wav,20,landoltCBottom.png,V1,frogFront.png,duckFront.png,HinCong,b,-20,landoltCR.png,,,,,3,38,278,42,,,b,0,1.43468510408,,,2020_Feb_26_1714,59.9631175573,duckFrog,001,7,
duck,ribbitL.wav,-20,landoltCR.png,V1,duckFront.png,frogFront.png,HinCong,b,20,landoltCBottom.png,,,,,3,39,279,46,,,b,0,1.01739760915,,,2020_Feb_26_1714,59.9631175573,duckFrog,001,7,
duck,ribbitR.wav,20,landoltCBottom.png,V1,frogFront.png,duckFront.png,HinCong,b,-20,landoltCR.png,,,,,3,40,280,10,,,b,0,1.0340632006,,,2020_Feb_26_1714,59.9631175573,duckFrog,001,7,
duck,wnL.wav,20,landoltCTop.png,V1,frogFront.png,duckFront.png,HcongWN,h,-20,landoltCR.png,,,,,3,41,281,33,,,h,0,1.117811234,,,2020_Feb_26_1714,59.9631175573,duckFrog,001,7,
duck,quackL.wav,20,landoltCTop.png,V1,frogFront.png,duckFront.png,Hcong,h,-20,landoltCL.png,,,,,3,42,282,48,,,h,0,0.600690743231,,,2020_Feb_26_1714,59.9631175573,duckFrog,001,7,
frog,wnR.wav,20,landoltCTop.png,V1,duckFront.png,frogFront.png,LinCongWN,h,-20,landoltCL.png,,,,,3,43,283,27,,,h,0,0.75080679571,,,2020_Feb_26_1714,59.9631175573,duckFrog,001,7,
duck,wnL.wav,-20,landoltCL.png,V1,duckFront.png,frogFront.png,HinCongWN,h,20,landoltCTop.png,,,,,3,44,284,71,,,h,0,1.60119696079,,,2020_Feb_26_1714,59.9631175573,duckFrog,001,7,
duck,wnL.wav,20,landoltCBottom.png,V1,frogFront.png,duckFront.png,HcongWN,b,-20,landoltCL.png,,,,,3,45,285,73,,,b,0,0.450066273814,,,2020_Feb_26_1714,59.9631175573,duckFrog,001,7,
duck,quackR.wav,-20,landoltCR.png,V1,duckFront.png,frogFront.png,Hcong,h,20,landoltCTop.png,,,,,3,46,286,68,,,h,0,0.867313080729,,,2020_Feb_26_1714,59.9631175573,duckFrog,001,7,
duck,wnL.wav,20,landoltCTop.png,V1,frogFront.png,duckFront.png,HcongWN,h,-20,landoltCR.png,,,,,3,47,287,65,,,h,0,0.704001648046,,,2020_Feb_26_1714,59.9631175573,duckFrog,001,7,
frog,wnL.wav,20,landoltCBottom.png,V1,duckFront.png,frogFront.png,LcongWN,b,-20,landoltCR.png,,,,,3,48,288,17,,,b,0,0.884240028507,,,2020_Feb_26_1714,59.9631175573,duckFrog,001,7,
duck,quackR.wav,-20,landoltCR.png,V1,duckFront.png,frogFront.png,Hcong,b,20,landoltCBottom.png,,,,,3,49,289,44,,,b,0,1.0340613678,,,2020_Feb_26_1714,59.9631175573,duckFrog,001,7,
duck,ribbitR.wav,20,landoltCTop.png,V1,frogFront.png,duckFront.png,HinCong,h,-20,landoltCL.png,,,,,3,50,290,2,,,h,0,1.01743646438,,,2020_Feb_26_1714,59.9631175573,duckFrog,001,7,
duck,quackL.wav,20,landoltCTop.png,V1,frogFront.png,duckFront.png,Hcong,h,-20,landoltCL.png,,,,,3,51,291,64,,,h,0,1.05100627696,,,2020_Feb_26_1714,59.9631175573,duckFrog,001,7,
duck,wnL.wav,-20,landoltCL.png,V1,duckFront.png,frogFront.png,HinCongWN,h,20,landoltCTop.png,,,,,3,52,292,55,,,h,0,1.21759731033,,,2020_Feb_26_1714,59.9631175573,duckFrog,001,7,
frog,ribbitR.wav,-20,landoltCL.png,V1,frogFront.png,duckFront.png,Lcong,b,20,landoltCBottom.png,,,,,3,53,293,20,,,b,0,0.934249632337,,,2020_Feb_26_1714,59.9631175573,duckFrog,001,7,
duck,quackL.wav,20,landoltCTop.png,V1,frogFront.png,duckFront.png,Hcong,h,-20,landoltCL.png,,,,,3,54,294,32,,,h,0,0.800644483505,,,2020_Feb_26_1714,59.9631175573,duckFrog,001,7,
duck,ribbitL.wav,-20,landoltCR.png,V1,duckFront.png,frogFront.png,HinCong,h,20,landoltCTop.png,,,,,3,55,295,6,,,h,0,1.65121462892,,,2020_Feb_26_1714,59.9631175573,duckFrog,001,7,
duck,ribbitR.wav,20,landoltCTop.png,V1,frogFront.png,duckFront.png,HinCong,h,-20,landoltCL.png,,,,,3,56,296,66,,,h,0,1.43438672529,,,2020_Feb_26_1714,59.9631175573,duckFrog,001,7,
duck,quackR.wav,-20,landoltCR.png,V1,duckFront.png,frogFront.png,Hcong,h,20,landoltCTop.png,,,,,3,57,297,4,,,h,0,1.70107321057,,,2020_Feb_26_1714,59.9631175573,duckFrog,001,7,
duck,wnL.wav,-20,landoltCL.png,V1,duckFront.png,frogFront.png,HinCongWN,b,20,landoltCBottom.png,,,,,3,58,298,79,,,b,0,1.01398678044,,,2020_Feb_26_1714,59.9631175573,duckFrog,001,7,
duck,wnL.wav,-20,landoltCL.png,V1,duckFront.png,frogFront.png,HinCongWN,h,20,landoltCTop.png,,,,,3,59,299,7,,,h,0,0.650765961065,,,2020_Feb_26_1714,59.9631175573,duckFrog,001,7,
duck,ribbitL.wav,-20,landoltCR.png,V1,duckFront.png,frogFront.png,HinCong,h,20,landoltCTop.png,,,,,3,60,300,38,,,h,0,0.600735096814,,,2020_Feb_26_1714,59.9631175573,duckFrog,001,7,
duck,ribbitR.wav,20,landoltCTop.png,V1,frogFront.png,duckFront.png,HinCong,h,-20,landoltCL.png,,,,,3,61,301,50,,,h,0,1.50109784331,,,2020_Feb_26_1714,59.9631175573,duckFrog,001,7,
duck,wnR.wav,-20,landoltCL.png,V1,duckFront.png,frogFront.png,HcongWN,h,20,landoltCTop.png,,,,,3,62,302,37,,,h,0,0.767238889239,,,2020_Feb_26_1714,59.9631175573,duckFrog,001,7,
frog,ribbitL.wav,20,landoltCTop.png,V1,duckFront.png,frogFront.png,Lcong,h,-20,landoltCR.png,,,,,3,63,303,24,,,h,0,0.68398680976,,,2020_Feb_26_1714,59.9631175573,duckFrog,001,7,
duck,quackL.wav,20,landoltCTop.png,V1,frogFront.png,duckFront.png,Hcong,h,-20,landoltCL.png,,,,,3,64,304,0,,,h,0,1.45156439923,,,2020_Feb_26_1714,59.9631175573,duckFrog,001,7,
frog,wnR.wav,-20,landoltCR.png,V1,frogFront.png,duckFront.png,LcongWN,h,20,landoltCTop.png,,,,,3,65,305,29,,,h,0,0.583512336161,,,2020_Feb_26_1714,59.9631175573,duckFrog,001,7,
duck,wnL.wav,-20,landoltCL.png,V1,duckFront.png,frogFront.png,HinCongWN,h,20,landoltCTop.png,,,,,3,66,306,39,,,h,0,1.46800455706,,,2020_Feb_26_1714,59.9631175573,duckFrog,001,7,
duck,wnL.wav,20,landoltCBottom.png,V1,frogFront.png,duckFront.png,HcongWN,b,-20,landoltCL.png,,,,,3,67,307,41,,,b,0,1.03385939394,,,2020_Feb_26_1714,59.9631175573,duckFrog,001,7,
duck,ribbitR.wav,20,landoltCBottom.png,V1,frogFront.png,duckFront.png,HinCong,b,-20,landoltCR.png,,,,,3,68,308,74,,,b,0,1.18463781801,,,2020_Feb_26_1714,59.9631175573,duckFrog,001,7,
duck,quackR.wav,-20,landoltCR.png,V1,duckFront.png,frogFront.png,Hcong,h,20,landoltCTop.png,,,,,3,69,309,52,,,h,0,0.683843485298,,,2020_Feb_26_1714,59.9631175573,duckFrog,001,7,
duck,wnR.wav,20,landoltCTop.png,V1,frogFront.png,duckFront.png,HinCongWN,h,-20,landoltCR.png,,,,,3,70,310,67,,,h,0,0.767095564792,,,2020_Feb_26_1714,59.9631175573,duckFrog,001,7,
duck,wnL.wav,20,landoltCBottom.png,V1,frogFront.png,duckFront.png,HcongWN,b,-20,landoltCL.png,,,,,3,71,311,57,,,b,0,1.00098127764,,,2020_Feb_26_1714,59.9631175573,duckFrog,001,7,
duck,wnR.wav,20,landoltCBottom.png,V1,frogFront.png,duckFront.png,HinCongWN,b,-20,landoltCL.png,,,,,3,72,312,59,,,b,0,3.1861956925,,,2020_Feb_26_1714,59.9631175573,duckFrog,001,7,
duck,wnR.wav,20,landoltCBottom.png,V1,frogFront.png,duckFront.png,HinCongWN,b,-20,landoltCL.png,,,,,3,73,313,75,,,b,0,3.16936221717,,,2020_Feb_26_1714,59.9631175573,duckFrog,001,7,
duck,ribbitL.wav,-20,landoltCR.png,V1,duckFront.png,frogFront.png,HinCong,b,20,landoltCBottom.png,,,,,3,74,314,14,,,b,0,0.56683208239,,,2020_Feb_26_1714,59.9631175573,duckFrog,001,7,
duck,quackL.wav,20,landoltCBottom.png,V1,frogFront.png,duckFront.png,Hcong,b,-20,landoltCR.png,,,,,3,75,315,40,,,b,0,0.633541734176,,,2020_Feb_26_1714,59.9631175573,duckFrog,001,7,
frog,quackL.wav,-20,landoltCL.png,V1,frogFront.png,duckFront.png,LinCong,b,20,landoltCBottom.png,,,,,3,76,316,22,,,h,0,0.96732202475,,,2020_Feb_26_1714,59.9631175573,duckFrog,001,7,
duck,ribbitL.wav,-20,landoltCR.png,V1,duckFront.png,frogFront.png,HinCong,h,20,landoltCTop.png,,,,,3,77,317,54,,,h,0,0.834216128875,,,2020_Feb_26_1714,59.9631175573,duckFrog,001,7,
duck,quackR.wav,-20,landoltCR.png,V1,duckFront.png,frogFront.png,Hcong,b,20,landoltCBottom.png,,,,,3,78,318,76,,,b,0,0.934331008379,,,2020_Feb_26_1714,59.9631175573,duckFrog,001,7,
duck,ribbitR.wav,20,landoltCTop.png,V1,frogFront.png,duckFront.png,HinCong,h,-20,landoltCL.png,,,,,3,79,319,34,,,h,0,0.800593531851,,,2020_Feb_26_1714,59.9631175573,duckFrog,001,7,
duck,wnL.wav,-20,landoltCL.png,V1,duckFront.png,frogFront.png,HinCongWN,b,20,landoltCBottom.png,,,,,4,0,320,63,,,b,0,1.1006119331,,,2020_Feb_26_1714,59.9631175573,duckFrog,001,7,
frog,quackL.wav,-20,landoltCL.png,V1,frogFront.png,duckFront.png,LinCong,h,20,landoltCTop.png,,,,,4,1,321,30,,,h,0,1.4680166535,,,2020_Feb_26_1714,59.9631175573,duckFrog,001,7,
duck,quackL.wav,20,landoltCBottom.png,V1,frogFront.png,duckFront.png,Hcong,b,-20,landoltCR.png,,,,,4,2,322,56,,,b,0,1.13392368834,,,2020_Feb_26_1714,59.9631175573,duckFrog,001,7,
duck,quackR.wav,-20,landoltCR.png,V1,duckFront.png,frogFront.png,Hcong,b,20,landoltCBottom.png,,,,,4,3,323,60,,,b,0,0.767192702842,,,2020_Feb_26_1714,59.9631175573,duckFrog,001,7,
frog,wnL.wav,-20,landoltCR.png,V1,frogFront.png,duckFront.png,LinCongWN,b,20,landoltCBottom.png,,,,,4,4,324,23,,,h,0,1.11775405085,,,2020_Feb_26_1714,59.9631175573,duckFrog,001,7,
duck,wnL.wav,-20,landoltCL.png,V1,duckFront.png,frogFront.png,HinCongWN,h,20,landoltCTop.png,,,,,4,5,325,7,,,h,0,0.6008923505,,,2020_Feb_26_1714,59.9631175573,duckFrog,001,7,
duck,wnR.wav,20,landoltCBottom.png,V1,frogFront.png,duckFront.png,HinCongWN,b,-20,landoltCL.png,,,,,4,6,326,59,,,b,0,0.683768707328,,,2020_Feb_26_1714,59.9631175573,duckFrog,001,7,
duck,wnR.wav,20,landoltCTop.png,V1,frogFront.png,duckFront.png,HinCongWN,h,-20,landoltCR.png,,,,,4,7,327,51,,,h,0,0.583996926769,,,2020_Feb_26_1714,59.9631175573,duckFrog,001,7,
duck,ribbitR.wav,20,landoltCBottom.png,V1,frogFront.png,duckFront.png,HinCong,b,-20,landoltCR.png,,,,,4,8,328,74,,,b,0,0.684058655257,,,2020_Feb_26_1714,59.9631175573,duckFrog,001,7,
frog,wnL.wav,-20,landoltCR.png,V1,frogFront.png,duckFront.png,LinCongWN,h,20,landoltCTop.png,,,,,4,9,329,31,,,h,0,1.0176476022,,,2020_Feb_26_1714,59.9631175573,duckFrog,001,7,
frog,ribbitR.wav,-20,landoltCL.png,V1,frogFront.png,duckFront.png,Lcong,b,20,landoltCBottom.png,,,,,4,10,330,20,,,b,0,1.00099080818,,,2020_Feb_26_1714,59.9631175573,duckFrog,001,7,
duck,ribbitL.wav,-20,landoltCR.png,V1,duckFront.png,frogFront.png,HinCong,h,20,landoltCTop.png,,,,,4,11,331,6,,,h,0,0.584021486211,,,2020_Feb_26_1714,59.9631175573,duckFrog,001,7,
duck,wnL.wav,-20,landoltCL.png,V1,duckFront.png,frogFront.png,HinCongWN,h,20,landoltCTop.png,,,,,4,12,332,71,,,h,0,0.734114078936,,,2020_Feb_26_1714,59.9631175573,duckFrog,001,7,
duck,ribbitR.wav,20,landoltCBottom.png,V1,frogFront.png,duckFront.png,HinCong,b,-20,landoltCR.png,,,,,4,13,333,58,,,b,0,1.26761241256,,,2020_Feb_26_1714,59.9631175573,duckFrog,001,7,
frog,wnR.wav,-20,landoltCR.png,V1,frogFront.png,duckFront.png,LcongWN,b,20,landoltCBottom.png,,,,,4,14,334,21,,,b,0,1.60120319229,,,2020_Feb_26_1714,59.9631175573,duckFrog,001,7,
duck,ribbitR.wav,20,landoltCTop.png,V1,frogFront.png,duckFront.png,HinCong,h,-20,landoltCL.png,,,,,4,15,335,66,,,h,0,0.650471247864,,,2020_Feb_26_1714,59.9631175573,duckFrog,001,7,
duck,wnR.wav,20,landoltCBottom.png,V1,frogFront.png,duckFront.png,HinCongWN,b,-20,landoltCL.png,,,,,4,16,336,43,,,b,0,0.600853495285,,,2020_Feb_26_1714,59.9631175573,duckFrog,001,7,
frog,wnR.wav,-20,landoltCR.png,V1,frogFront.png,duckFront.png,LcongWN,h,20,landoltCTop.png,,,,,4,17,337,29,,,h,0,0.984061661031,,,2020_Feb_26_1714,59.9631175573,duckFrog,001,7,
duck,quackR.wav,-20,landoltCR.png,V1,duckFront.png,frogFront.png,Hcong,h,20,landoltCTop.png,,,,,4,18,338,36,,,h,0,0.56751314846,,,2020_Feb_26_1714,59.9631175573,duckFrog,001,7,
duck,wnL.wav,-20,landoltCL.png,V1,duckFront.png,frogFront.png,HinCongWN,b,20,landoltCBottom.png,,,,,4,19,339,15,,,b,0,0.467256044183,,,2020_Feb_26_1714,59.9631175573,duckFrog,001,7,
duck,wnR.wav,-20,landoltCL.png,V1,duckFront.png,frogFront.png,HcongWN,h,20,landoltCTop.png,,,,,4,20,340,5,,,h,0,0.667401861239,,,2020_Feb_26_1714,59.9631175573,duckFrog,001,7,
frog,ribbitL.wav,20,landoltCTop.png,V1,duckFront.png,frogFront.png,Lcong,h,-20,landoltCR.png,,,,,4,21,341,24,,,h,0,1.36744797432,,,2020_Feb_26_1714,59.9631175573,duckFrog,001,7,
frog,ribbitR.wav,-20,landoltCL.png,V1,frogFront.png,duckFront.png,Lcong,h,20,landoltCTop.png,,,,,4,22,342,28,,,h,0,0.950735610008,,,2020_Feb_26_1714,59.9631175573,duckFrog,001,7,
duck,wnR.wav,-20,landoltCL.png,V1,duckFront.png,frogFront.png,HcongWN,b,20,landoltCBottom.png,,,,,4,23,343,77,,,b,0,0.984301390432,,,2020_Feb_26_1714,59.9631175573,duckFrog,001,7,
duck,wnR.wav,20,landoltCTop.png,V1,frogFront.png,duckFront.png,HinCongWN,h,-20,landoltCR.png,,,,,4,24,344,67,,,h,0,0.900674321398,,,2020_Feb_26_1714,59.9631175573,duckFrog,001,7,
frog,wnL.wav,20,landoltCTop.png,V1,duckFront.png,frogFront.png,LcongWN,h,-20,landoltCL.png,,,,,4,25,345,25,,,h,0,1.60160970589,,,2020_Feb_26_1714,59.9631175573,duckFrog,001,7,
duck,ribbitL.wav,-20,landoltCR.png,V1,duckFront.png,frogFront.png,HinCong,b,20,landoltCBottom.png,,,,,4,26,346,62,,,h,0,1.26763074049,,,2020_Feb_26_1714,59.9631175573,duckFrog,001,7,
duck,ribbitL.wav,-20,landoltCR.png,V1,duckFront.png,frogFront.png,HinCong,b,20,landoltCBottom.png,,,,,4,27,347,14,,,b,0,1.05084865671,,,2020_Feb_26_1714,59.9631175573,duckFrog,001,7,
duck,quackL.wav,20,landoltCBottom.png,V1,frogFront.png,duckFront.png,Hcong,b,-20,landoltCR.png,,,,,4,28,348,72,,,b,0,0.934067086113,,,2020_Feb_26_1714,59.9631175573,duckFrog,001,7,
duck,wnL.wav,20,landoltCTop.png,V1,frogFront.png,duckFront.png,HcongWN,h,-20,landoltCR.png,,,,,4,29,349,65,,,h,0,1.56813519858,,,2020_Feb_26_1714,59.9631175573,duckFrog,001,7,
duck,wnR.wav,20,landoltCBottom.png,V1,frogFront.png,duckFront.png,HinCongWN,b,-20,landoltCL.png,,,,,4,30,350,75,,,b,0,0.684079182553,,,2020_Feb_26_1714,59.9631175573,duckFrog,001,7,
duck,quackL.wav,20,landoltCBottom.png,V1,frogFront.png,duckFront.png,Hcong,b,-20,landoltCR.png,,,,,4,31,351,8,,,b,0,1.16782523654,,,2020_Feb_26_1714,59.9631175573,duckFrog,001,7,
duck,ribbitR.wav,20,landoltCTop.png,V1,frogFront.png,duckFront.png,HinCong,h,-20,landoltCL.png,,,,,4,32,352,50,,,h,0,0.734123609465,,,2020_Feb_26_1714,59.9631175573,duckFrog,001,7,
duck,wnL.wav,20,landoltCBottom.png,V1,frogFront.png,duckFront.png,HcongWN,b,-20,landoltCL.png,,,,,4,33,353,9,,,b,0,0.634240761618,,,2020_Feb_26_1714,59.9631175573,duckFrog,001,7,
frog,quackR.wav,20,landoltCBottom.png,V1,duckFront.png,frogFront.png,LinCong,b,-20,landoltCL.png,,,,,4,34,354,18,,,b,0,0.784205058808,,,2020_Feb_26_1714,59.9631175573,duckFrog,001,7,
duck,ribbitL.wav,-20,landoltCR.png,V1,duckFront.png,frogFront.png,HinCong,b,20,landoltCBottom.png,,,,,4,35,355,78,,,h,0,0.700481584834,,,2020_Feb_26_1714,59.9631175573,duckFrog,001,7,
duck,wnL.wav,-20,landoltCL.png,V1,duckFront.png,frogFront.png,HinCongWN,b,20,landoltCBottom.png,,,,,4,36,356,79,,,b,0,1.11774085472,,,2020_Feb_26_1714,59.9631175573,duckFrog,001,7,
duck,wnL.wav,20,landoltCTop.png,V1,frogFront.png,duckFront.png,HcongWN,h,-20,landoltCR.png,,,,,4,37,357,1,,,h,0,0.984195088415,,,2020_Feb_26_1714,59.9631175573,duckFrog,001,7,
duck,quackR.wav,-20,landoltCR.png,V1,duckFront.png,frogFront.png,Hcong,h,20,landoltCTop.png,,,,,4,38,358,4,,,h,0,1.06741381105,,,2020_Feb_26_1714,59.9631175573,duckFrog,001,7,
duck,quackL.wav,20,landoltCTop.png,V1,frogFront.png,duckFront.png,Hcong,h,-20,landoltCL.png,,,,,4,39,359,48,,,h,0,0.800622123425,,,2020_Feb_26_1714,59.9631175573,duckFrog,001,7,
duck,wnR.wav,20,landoltCTop.png,V1,frogFront.png,duckFront.png,HinCongWN,h,-20,landoltCR.png,,,,,4,40,360,35,,,h,0,1.03436634464,,,2020_Feb_26_1714,59.9631175573,duckFrog,001,7,
duck,wnR.wav,-20,landoltCL.png,V1,duckFront.png,frogFront.png,HcongWN,h,20,landoltCTop.png,,,,,4,41,361,37,,,h,0,0.750543973118,,,2020_Feb_26_1714,59.9631175573,duckFrog,001,7,
duck,ribbitL.wav,-20,landoltCR.png,V1,duckFront.png,frogFront.png,HinCong,h,20,landoltCTop.png,,,,,4,42,362,70,,,h,0,1.61815066736,,,2020_Feb_26_1714,59.9631175573,duckFrog,001,7,
duck,quackR.wav,-20,landoltCR.png,V1,duckFront.png,frogFront.png,Hcong,h,20,landoltCTop.png,,,,,4,43,363,68,,,h,0,0.717434191713,,,2020_Feb_26_1714,59.9631175573,duckFrog,001,7,
frog,quackL.wav,-20,landoltCL.png,V1,frogFront.png,duckFront.png,LinCong,b,20,landoltCBottom.png,,,,,4,44,364,22,,,b,0,1.5014193153,,,2020_Feb_26_1714,59.9631175573,duckFrog,001,7,
duck,ribbitL.wav,-20,landoltCR.png,V1,duckFront.png,frogFront.png,HinCong,h,20,landoltCTop.png,,,,,4,45,365,54,,,s,0,3.83635279955,,,2020_Feb_26_1714,59.9631175573,duckFrog,001,7,
duck,ribbitR.wav,20,landoltCTop.png,V1,frogFront.png,duckFront.png,HinCong,h,-20,landoltCL.png,,,,,4,46,366,34,,,h,0,0.967399735193,,,2020_Feb_26_1714,59.9631175573,duckFrog,001,7,
duck,quackR.wav,-20,landoltCR.png,V1,duckFront.png,frogFront.png,Hcong,b,20,landoltCBottom.png,,,,,4,47,367,44,,,b,0,0.934000738984,,,2020_Feb_26_1714,59.9631175573,duckFrog,001,7,
duck,wnL.wav,20,landoltCBottom.png,V1,frogFront.png,duckFront.png,HcongWN,b,-20,landoltCL.png,,,,,4,48,368,73,,,b,0,1.11750882307,,,2020_Feb_26_1714,59.9631175573,duckFrog,001,7,
frog,wnR.wav,20,landoltCBottom.png,V1,duckFront.png,frogFront.png,LinCongWN,b,-20,landoltCR.png,,,,,4,49,369,19,,,b,0,1.26785874,,,2020_Feb_26_1714,59.9631175573,duckFrog,001,7,
duck,wnL.wav,20,landoltCTop.png,V1,frogFront.png,duckFront.png,HcongWN,h,-20,landoltCR.png,,,,,4,50,370,49,,,h,0,0.817697160921,,,2020_Feb_26_1714,59.9631175573,duckFrog,001,7,
duck,wnL.wav,-20,landoltCL.png,V1,duckFront.png,frogFront.png,HinCongWN,h,20,landoltCTop.png,,,,,4,51,371,55,,,h,0,1.1174065532,,,2020_Feb_26_1714,59.9631175573,duckFrog,001,7,
duck,wnL.wav,20,landoltCBottom.png,V1,frogFront.png,duckFront.png,HcongWN,b,-20,landoltCL.png,,,,,4,52,372,57,,,b,0,0.900717575321,,,2020_Feb_26_1714,59.9631175573,duckFrog,001,7,
duck,wnL.wav,-20,landoltCL.png,V1,duckFront.png,frogFront.png,HinCongWN,b,20,landoltCBottom.png,,,,,4,53,373,47,,,h,0,0.800625055897,,,2020_Feb_26_1714,59.9631175573,duckFrog,001,7,
duck,quackL.wav,20,landoltCTop.png,V1,frogFront.png,duckFront.png,Hcong,h,-20,landoltCL.png,,,,,4,54,374,64,,,h,0,0.984077789617,,,2020_Feb_26_1714,59.9631175573,duckFrog,001,7,
frog,wnR.wav,20,landoltCTop.png,V1,duckFront.png,frogFront.png,LinCongWN,h,-20,landoltCL.png,,,,,4,55,375,27,,,s,0,2.16855982019,,,2020_Feb_26_1714,59.9631175573,duckFrog,001,7,
duck,wnR.wav,-20,landoltCL.png,V1,duckFront.png,frogFront.png,HcongWN,h,20,landoltCTop.png,,,,,4,56,376,69,,,h,0,0.984014374961,,,2020_Feb_26_1714,59.9631175573,duckFrog,001,7,
duck,quackR.wav,-20,landoltCR.png,V1,duckFront.png,frogFront.png,Hcong,h,20,landoltCTop.png,,,,,4,57,377,52,,,h,0,0.85084763034,,,2020_Feb_26_1714,59.9631175573,duckFrog,001,7,
duck,wnR.wav,-20,landoltCL.png,V1,duckFront.png,frogFront.png,HcongWN,b,20,landoltCBottom.png,,,,,4,58,378,45,,,b,0,0.834200366851,,,2020_Feb_26_1714,59.9631175573,duckFrog,001,7,
duck,ribbitR.wav,20,landoltCBottom.png,V1,frogFront.png,duckFront.png,HinCong,b,-20,landoltCR.png,,,,,4,59,379,42,,,b,0,1.03405513629,,,2020_Feb_26_1714,59.9631175573,duckFrog,001,7,
frog,wnL.wav,20,landoltCBottom.png,V1,duckFront.png,frogFront.png,LcongWN,b,-20,landoltCR.png,,,,,4,60,380,17,,,b,0,1.2513350068,,,2020_Feb_26_1714,59.9631175573,duckFrog,001,7,
duck,quackL.wav,20,landoltCTop.png,V1,frogFront.png,duckFront.png,Hcong,h,-20,landoltCL.png,,,,,4,61,381,32,,,h,0,1.25117262128,,,2020_Feb_26_1714,59.9631175573,duckFrog,001,7,
frog,ribbitL.wav,20,landoltCBottom.png,V1,duckFront.png,frogFront.png,Lcong,b,-20,landoltCL.png,,,,,4,62,382,16,,,b,0,1.3015091955,,,2020_Feb_26_1714,59.9631175573,duckFrog,001,7,
duck,ribbitL.wav,-20,landoltCR.png,V1,duckFront.png,frogFront.png,HinCong,b,20,landoltCBottom.png,,,,,4,63,383,46,,,b,0,0.833928380292,,,2020_Feb_26_1714,59.9631175573,duckFrog,001,7,
duck,wnL.wav,20,landoltCTop.png,V1,frogFront.png,duckFront.png,HcongWN,h,-20,landoltCR.png,,,,,4,64,384,33,,,h,0,0.76718793757,,,2020_Feb_26_1714,59.9631175573,duckFrog,001,7,
duck,wnR.wav,-20,landoltCL.png,V1,duckFront.png,frogFront.png,HcongWN,b,20,landoltCBottom.png,,,,,4,65,385,13,,,b,0,0.950443829279,,,2020_Feb_26_1714,59.9631175573,duckFrog,001,7,
duck,ribbitR.wav,20,landoltCBottom.png,V1,frogFront.png,duckFront.png,HinCong,b,-20,landoltCR.png,,,,,4,66,386,10,,,b,0,0.800623223113,,,2020_Feb_26_1714,59.9631175573,duckFrog,001,7,
duck,quackL.wav,20,landoltCTop.png,V1,frogFront.png,duckFront.png,Hcong,h,-20,landoltCL.png,,,,,4,67,387,0,,,h,0,0.901111992469,,,2020_Feb_26_1714,59.9631175573,duckFrog,001,7,
duck,quackL.wav,20,landoltCBottom.png,V1,frogFront.png,duckFront.png,Hcong,b,-20,landoltCR.png,,,,,4,68,388,40,,,b,0,1.11776101546,,,2020_Feb_26_1714,59.9631175573,duckFrog,001,7,
duck,quackR.wav,-20,landoltCR.png,V1,duckFront.png,frogFront.png,Hcong,b,20,landoltCBottom.png,,,,,4,69,389,76,,,b,0,0.883733810944,,,2020_Feb_26_1714,59.9631175573,duckFrog,001,7,
duck,wnR.wav,-20,landoltCL.png,V1,duckFront.png,frogFront.png,HcongWN,h,20,landoltCTop.png,,,,,4,70,390,53,,,h,0,0.917574876948,,,2020_Feb_26_1714,59.9631175573,duckFrog,001,7,
duck,quackR.wav,-20,landoltCR.png,V1,duckFront.png,frogFront.png,Hcong,b,20,landoltCBottom.png,,,,,4,71,391,12,,,b,0,0.483905507019,,,2020_Feb_26_1714,59.9631175573,duckFrog,001,7,
duck,wnL.wav,-20,landoltCL.png,V1,duckFront.png,frogFront.png,HinCongWN,h,20,landoltCTop.png,,,,,4,72,392,39,,,h,0,1.23450886266,,,2020_Feb_26_1714,59.9631175573,duckFrog,001,7,
frog,quackR.wav,20,landoltCTop.png,V1,duckFront.png,frogFront.png,LinCong,h,-20,landoltCR.png,,,,,4,73,393,26,,,h,0,1.36787244931,,,2020_Feb_26_1714,59.9631175573,duckFrog,001,7,
duck,wnR.wav,-20,landoltCL.png,V1,duckFront.png,frogFront.png,HcongWN,b,20,landoltCBottom.png,,,,,4,74,394,61,,,b,0,1.0674372708,,,2020_Feb_26_1714,59.9631175573,duckFrog,001,7,
duck,wnL.wav,20,landoltCBottom.png,V1,frogFront.png,duckFront.png,HcongWN,b,-20,landoltCL.png,,,,,4,75,395,41,,,b,0,0.767254284714,,,2020_Feb_26_1714,59.9631175573,duckFrog,001,7,
duck,wnR.wav,20,landoltCTop.png,V1,frogFront.png,duckFront.png,HinCongWN,h,-20,landoltCR.png,,,,,4,76,396,3,,,h,0,1.3679886484,,,2020_Feb_26_1714,59.9631175573,duckFrog,001,7,
duck,ribbitR.wav,20,landoltCTop.png,V1,frogFront.png,duckFront.png,HinCong,h,-20,landoltCL.png,,,,,4,77,397,2,,,h,0,0.784164370794,,,2020_Feb_26_1714,59.9631175573,duckFrog,001,7,
duck,wnR.wav,20,landoltCBottom.png,V1,frogFront.png,duckFront.png,HinCongWN,b,-20,landoltCL.png,,,,,4,78,398,11,,,b,0,0.800806869011,,,2020_Feb_26_1714,59.9631175573,duckFrog,001,7,
duck,ribbitL.wav,-20,landoltCR.png,V1,duckFront.png,frogFront.png,HinCong,h,20,landoltCTop.png,,,,,4,79,399,38,,,h,0,0.786373986644,,,2020_Feb_26_1714,59.9631175573,duckFrog,001,7,
duck,quackR.wav,-20,landoltCR.png,V1,duckFront.png,frogFront.png,Hcong,h,20,landoltCTop.png,,,,,5,0,400,4,,,h,0,0.734144503309,,,2020_Feb_26_1714,59.9631175573,duckFrog,001,7,
frog,quackR.wav,20,landoltCTop.png,V1,duckFront.png,frogFront.png,LinCong,h,-20,landoltCR.png,,,,,5,1,401,26,,,h,0,1.48461443155,,,2020_Feb_26_1714,59.9631175573,duckFrog,001,7,
frog,ribbitR.wav,-20,landoltCL.png,V1,frogFront.png,duckFront.png,Lcong,h,20,landoltCTop.png,,,,,5,2,402,28,,,h,0,1.65100862294,,,2020_Feb_26_1714,59.9631175573,duckFrog,001,7,
duck,quackL.wav,20,landoltCBottom.png,V1,frogFront.png,duckFront.png,Hcong,b,-20,landoltCR.png,,,,,5,3,403,40,,,b,0,1.2843230907,,,2020_Feb_26_1714,59.9631175573,duckFrog,001,7,
duck,quackL.wav,20,landoltCTop.png,V1,frogFront.png,duckFront.png,Hcong,h,-20,landoltCL.png,,,,,5,4,404,64,,,h,0,1.18433687331,,,2020_Feb_26_1714,59.9631175573,duckFrog,001,7,
duck,quackR.wav,-20,landoltCR.png,V1,duckFront.png,frogFront.png,Hcong,b,20,landoltCBottom.png,,,,,5,5,405,12,,,b,0,1.76802185863,,,2020_Feb_26_1714,59.9631175573,duckFrog,001,7,
duck,ribbitL.wav,-20,landoltCR.png,V1,duckFront.png,frogFront.png,HinCong,b,20,landoltCBottom.png,,,,,5,6,406,14,,,b,0,1.41799495323,,,2020_Feb_26_1714,59.9631175573,duckFrog,001,7,
duck,wnL.wav,-20,landoltCL.png,V1,duckFront.png,frogFront.png,HinCongWN,h,20,landoltCTop.png,,,,,5,7,407,55,,,h,0,1.20116448369,,,2020_Feb_26_1714,59.9631175573,duckFrog,001,7,
duck,wnL.wav,-20,landoltCL.png,V1,duckFront.png,frogFront.png,HinCongWN,b,20,landoltCBottom.png,,,,,5,8,408,63,,,s,0,3.30299779038,,,2020_Feb_26_1714,59.9631175573,duckFrog,001,7,
frog,ribbitL.wav,20,landoltCTop.png,V1,duckFront.png,frogFront.png,Lcong,h,-20,landoltCR.png,,,,,5,9,409,24,,,h,0,1.13432507012,,,2020_Feb_26_1714,59.9631175573,duckFrog,001,7,
duck,wnL.wav,20,landoltCTop.png,V1,frogFront.png,duckFront.png,HcongWN,h,-20,landoltCR.png,,,,,5,10,410,49,,,h,0,1.43469133558,,,2020_Feb_26_1714,59.9631175573,duckFrog,001,7,
duck,wnR.wav,20,landoltCTop.png,V1,frogFront.png,duckFront.png,HinCongWN,h,-20,landoltCR.png,,,,,5,11,411,3,,,h,0,1.30120275241,,,2020_Feb_26_1714,59.9631175573,duckFrog,001,7,
duck,ribbitL.wav,-20,landoltCR.png,V1,duckFront.png,frogFront.png,HinCong,h,20,landoltCTop.png,,,,,5,12,412,38,,,h,0,0.716868958203,,,2020_Feb_26_1714,59.9631175573,duckFrog,001,7,
duck,ribbitR.wav,20,landoltCBottom.png,V1,frogFront.png,duckFront.png,HinCong,b,-20,landoltCR.png,,,,,5,13,413,10,,,b,0,0.91711961104,,,2020_Feb_26_1714,59.9631175573,duckFrog,001,7,
duck,wnL.wav,20,landoltCBottom.png,V1,frogFront.png,duckFront.png,HcongWN,b,-20,landoltCL.png,,,,,5,14,414,9,,,b,0,0.784092158719,,,2020_Feb_26_1714,59.9631175573,duckFrog,001,7,
duck,wnR.wav,20,landoltCBottom.png,V1,frogFront.png,duckFront.png,HinCongWN,b,-20,landoltCL.png,,,,,5,15,415,43,,,b,0,0.717419895926,,,2020_Feb_26_1714,59.9631175573,duckFrog,001,7,
duck,quackR.wav,-20,landoltCR.png,V1,duckFront.png,frogFront.png,Hcong,b,20,landoltCBottom.png,,,,,5,16,416,76,,,b,0,1.23445607821,,,2020_Feb_26_1714,59.9631175573,duckFrog,001,7,
duck,wnL.wav,-20,landoltCL.png,V1,duckFront.png,frogFront.png,HinCongWN,h,20,landoltCTop.png,,,,,5,17,417,39,,,h,0,0.784154473702,,,2020_Feb_26_1714,59.9631175573,duckFrog,001,7,
frog,wnR.wav,-20,landoltCR.png,V1,frogFront.png,duckFront.png,LcongWN,h,20,landoltCTop.png,,,,,5,18,418,29,,,h,0,1.51809260446,,,2020_Feb_26_1714,59.9631175573,duckFrog,001,7,
duck,wnL.wav,20,landoltCBottom.png,V1,frogFront.png,duckFront.png,HcongWN,b,-20,landoltCL.png,,,,,5,19,419,57,,,b,0,1.06753514199,,,2020_Feb_26_1714,59.9631175573,duckFrog,001,7,
duck,wnL.wav,20,landoltCTop.png,V1,frogFront.png,duckFront.png,HcongWN,h,-20,landoltCR.png,,,,,5,20,420,1,,,h,0,1.41490339712,,,2020_Feb_26_1714,59.9631175573,duckFrog,001,7,
frog,wnR.wav,-20,landoltCR.png,V1,frogFront.png,duckFront.png,LcongWN,b,20,landoltCBottom.png,,,,,5,21,421,21,,,b,0,1.33433855949,,,2020_Feb_26_1714,59.9631175573,duckFrog,001,7,
duck,ribbitL.wav,-20,landoltCR.png,V1,duckFront.png,frogFront.png,HinCong,h,20,landoltCTop.png,,,,,5,22,422,54,,,h,0,1.21782457674,,,2020_Feb_26_1714,59.9631175573,duckFrog,001,7,
duck,quackR.wav,-20,landoltCR.png,V1,duckFront.png,frogFront.png,Hcong,b,20,landoltCBottom.png,,,,,5,23,423,60,,,s,0,4.60381382336,,,2020_Feb_26_1714,59.9631175573,duckFrog,001,7,
duck,wnL.wav,20,landoltCBottom.png,V1,frogFront.png,duckFront.png,HcongWN,b,-20,landoltCL.png,,,,,5,24,424,41,,,b,0,0.683437704822,,,2020_Feb_26_1714,59.9631175573,duckFrog,001,7,
duck,wnR.wav,20,landoltCBottom.png,V1,frogFront.png,duckFront.png,HinCongWN,b,-20,landoltCL.png,,,,,5,25,425,75,,,b,0,0.950981937451,,,2020_Feb_26_1714,59.9631175573,duckFrog,001,7,
duck,wnL.wav,20,landoltCBottom.png,V1,frogFront.png,duckFront.png,HcongWN,b,-20,landoltCL.png,,,,,5,26,426,73,,,b,0,0.583952573157,,,2020_Feb_26_1714,59.9631175573,duckFrog,001,7,
duck,ribbitR.wav,20,landoltCTop.png,V1,frogFront.png,duckFront.png,HinCong,h,-20,landoltCL.png,,,,,5,27,427,50,,,s,0,2.45205888692,,,2020_Feb_26_1714,59.9631175573,duckFrog,001,7,
frog,wnR.wav,20,landoltCTop.png,V1,duckFront.png,frogFront.png,LinCongWN,h,-20,landoltCL.png,,,,,5,28,428,27,,,h,0,1.73488201942,,,2020_Feb_26_1714,59.9631175573,duckFrog,001,7,
duck,quackR.wav,-20,landoltCR.png,V1,duckFront.png,frogFront.png,Hcong,h,20,landoltCTop.png,,,,,5,29,429,68,,,h,0,0.933884906422,,,2020_Feb_26_1714,59.9631175573,duckFrog,001,7,
duck,wnR.wav,20,landoltCBottom.png,V1,frogFront.png,duckFront.png,HinCongWN,b,-20,landoltCL.png,,,,,5,30,430,59,,,b,0,1.53473986796,,,2020_Feb_26_1714,59.9631175573,duckFrog,001,7,
duck,quackR.wav,-20,landoltCR.png,V1,duckFront.png,frogFront.png,Hcong,h,20,landoltCTop.png,,,,,5,31,431,52,,,h,0,1.00077967036,,,2020_Feb_26_1714,59.9631175573,duckFrog,001,7,
frog,quackR.wav,20,landoltCBottom.png,V1,duckFront.png,frogFront.png,LinCong,b,-20,landoltCL.png,,,,,5,32,432,18,,,b,0,0.867340939192,,,2020_Feb_26_1714,59.9631175573,duckFrog,001,7,
duck,wnR.wav,20,landoltCTop.png,V1,frogFront.png,duckFront.png,HinCongWN,h,-20,landoltCR.png,,,,,5,33,433,67,,,h,0,0.984284895283,,,2020_Feb_26_1714,59.9631175573,duckFrog,001,7,
duck,quackL.wav,20,landoltCBottom.png,V1,frogFront.png,duckFront.png,Hcong,b,-20,landoltCR.png,,,,,5,34,434,8,,,b,0,1.06770669146,,,2020_Feb_26_1714,59.9631175573,duckFrog,001,7,
duck,wnR.wav,-20,landoltCL.png,V1,duckFront.png,frogFront.png,HcongWN,h,20,landoltCTop.png,,,,,5,35,435,5,,,h,0,0.884040254023,,,2020_Feb_26_1714,59.9631175573,duckFrog,001,7,
duck,wnR.wav,-20,landoltCL.png,V1,duckFront.png,frogFront.png,HcongWN,b,20,landoltCBottom.png,,,,,5,36,436,45,,,b,0,0.550619190966,,,2020_Feb_26_1714,59.9631175573,duckFrog,001,7,
duck,ribbitR.wav,20,landoltCBottom.png,V1,frogFront.png,duckFront.png,HinCong,b,-20,landoltCR.png,,,,,5,37,437,74,,,b,0,0.817282216478,,,2020_Feb_26_1714,59.9631175573,duckFrog,001,7,
duck,wnL.wav,-20,landoltCL.png,V1,duckFront.png,frogFront.png,HinCongWN,b,20,landoltCBottom.png,,,,,5,38,438,47,,,b,0,0.90062153693,,,2020_Feb_26_1714,59.9631175573,duckFrog,001,7,
duck,wnR.wav,-20,landoltCL.png,V1,duckFront.png,frogFront.png,HcongWN,h,20,landoltCTop.png,,,,,5,39,439,53,,,h,0,1.03448914181,,,2020_Feb_26_1714,59.9631175573,duckFrog,001,7,
duck,quackL.wav,20,landoltCTop.png,V1,frogFront.png,duckFront.png,Hcong,h,-20,landoltCL.png,,,,,5,40,440,0,,,h,0,0.766973867285,,,2020_Feb_26_1714,59.9631175573,duckFrog,001,7,
duck,wnL.wav,20,landoltCTop.png,V1,frogFront.png,duckFront.png,HcongWN,h,-20,landoltCR.png,,,,,5,41,441,65,,,h,0,0.467238449375,,,2020_Feb_26_1714,59.9631175573,duckFrog,001,7,
duck,wnR.wav,-20,landoltCL.png,V1,duckFront.png,frogFront.png,HcongWN,h,20,landoltCTop.png,,,,,5,42,442,37,,,h,0,0.650456585514,,,2020_Feb_26_1714,59.9631175573,duckFrog,001,7,
duck,wnL.wav,20,landoltCTop.png,V1,frogFront.png,duckFront.png,HcongWN,h,-20,landoltCR.png,,,,,5,43,443,33,,,h,0,0.667100916544,,,2020_Feb_26_1714,59.9631175573,duckFrog,001,7,
duck,wnL.wav,-20,landoltCL.png,V1,duckFront.png,frogFront.png,HinCongWN,h,20,landoltCTop.png,,,,,5,44,444,71,,,h,0,0.767219095069,,,2020_Feb_26_1714,59.9631175573,duckFrog,001,7,
duck,wnR.wav,20,landoltCTop.png,V1,frogFront.png,duckFront.png,HinCongWN,h,-20,landoltCR.png,,,,,5,45,445,35,,,h,0,0.933926327561,,,2020_Feb_26_1714,59.9631175573,duckFrog,001,7,
duck,wnL.wav,-20,landoltCL.png,V1,duckFront.png,frogFront.png,HinCongWN,h,20,landoltCTop.png,,,,,5,46,446,7,,,h,0,0.400091859614,,,2020_Feb_26_1714,59.9631175573,duckFrog,001,7,
duck,wnR.wav,-20,landoltCL.png,V1,duckFront.png,frogFront.png,HcongWN,b,20,landoltCBottom.png,,,,,5,47,447,61,,,b,0,0.917600169501,,,2020_Feb_26_1714,59.9631175573,duckFrog,001,7,
duck,ribbitR.wav,20,landoltCTop.png,V1,frogFront.png,duckFront.png,HinCong,h,-20,landoltCL.png,,,,,5,48,448,66,,,h,0,0.834172508388,,,2020_Feb_26_1714,59.9631175573,duckFrog,001,7,
duck,ribbitR.wav,20,landoltCTop.png,V1,frogFront.png,duckFront.png,HinCong,h,-20,landoltCL.png,,,,,5,49,449,2,,,h,0,0.800798804717,,,2020_Feb_26_1714,59.9631175573,duckFrog,001,7,
frog,wnL.wav,-20,landoltCR.png,V1,frogFront.png,duckFront.png,LinCongWN,b,20,landoltCBottom.png,,,,,5,50,450,23,,,b,0,1.25093105911,,,2020_Feb_26_1714,59.9631175573,duckFrog,001,7,
duck,wnL.wav,-20,landoltCL.png,V1,duckFront.png,frogFront.png,HinCongWN,b,20,landoltCBottom.png,,,,,5,51,451,79,,,b,0,0.684103375417,,,2020_Feb_26_1714,59.9631175573,duckFrog,001,7,
duck,ribbitL.wav,-20,landoltCR.png,V1,duckFront.png,frogFront.png,HinCong,b,20,landoltCBottom.png,,,,,5,52,452,78,,,b,0,0.817687996969,,,2020_Feb_26_1714,59.9631175573,duckFrog,001,7,
duck,wnR.wav,-20,landoltCL.png,V1,duckFront.png,frogFront.png,HcongWN,b,20,landoltCBottom.png,,,,,5,53,453,13,,,b,0,0.750793966145,,,2020_Feb_26_1714,59.9631175573,duckFrog,001,7,
frog,quackL.wav,-20,landoltCL.png,V1,frogFront.png,duckFront.png,LinCong,b,20,landoltCBottom.png,,,,,5,54,454,22,,,b,0,1.20113882459,,,2020_Feb_26_1714,59.9631175573,duckFrog,001,7,
frog,ribbitL.wav,20,landoltCBottom.png,V1,duckFront.png,frogFront.png,Lcong,b,-20,landoltCL.png,,,,,5,55,455,16,,,b,0,1.05054294674,,,2020_Feb_26_1714,59.9631175573,duckFrog,001,7,
duck,wnR.wav,-20,landoltCL.png,V1,duckFront.png,frogFront.png,HcongWN,h,20,landoltCTop.png,,,,,5,56,456,69,,,h,0,0.867315646625,,,2020_Feb_26_1714,59.9631175573,duckFrog,001,7,
duck,ribbitR.wav,20,landoltCBottom.png,V1,frogFront.png,duckFront.png,HinCong,b,-20,landoltCR.png,,,,,5,57,457,58,,,b,0,1.11746446947,,,2020_Feb_26_1714,59.9631175573,duckFrog,001,7,
duck,ribbitL.wav,-20,landoltCR.png,V1,duckFront.png,frogFront.png,HinCong,b,20,landoltCBottom.png,,,,,5,58,458,62,,,b,0,0.767047545596,,,2020_Feb_26_1714,59.9631175573,duckFrog,001,7,
duck,quackL.wav,20,landoltCBottom.png,V1,frogFront.png,duckFront.png,Hcong,b,-20,landoltCR.png,,,,,5,59,459,72,,,b,0,1.05072659266,,,2020_Feb_26_1714,59.9631175573,duckFrog,001,7,
duck,quackR.wav,-20,landoltCR.png,V1,duckFront.png,frogFront.png,Hcong,b,20,landoltCBottom.png,,,,,5,60,460,44,,,b,0,1.00077893725,,,2020_Feb_26_1714,59.9631175573,duckFrog,001,7,
duck,quackL.wav,20,landoltCBottom.png,V1,frogFront.png,duckFront.png,Hcong,b,-20,landoltCR.png,,,,,5,61,461,56,,,b,0,1.25092116202,,,2020_Feb_26_1714,59.9631175573,duckFrog,001,7,
frog,wnL.wav,20,landoltCBottom.png,V1,duckFront.png,frogFront.png,LcongWN,b,-20,landoltCR.png,,,,,5,62,462,17,,,b,0,1.41801071525,,,2020_Feb_26_1714,59.9631175573,duckFrog,001,7,
duck,ribbitL.wav,-20,landoltCR.png,V1,duckFront.png,frogFront.png,HinCong,b,20,landoltCBottom.png,,,,,5,63,463,46,,,b,0,0.767256484061,,,2020_Feb_26_1714,59.9631175573,duckFrog,001,7,
frog,wnR.wav,20,landoltCBottom.png,V1,duckFront.png,frogFront.png,LinCongWN,b,-20,landoltCR.png,,,,,5,64,464,19,,,b,0,0.967183099012,,,2020_Feb_26_1714,59.9631175573,duckFrog,001,7,
duck,ribbitL.wav,-20,landoltCR.png,V1,duckFront.png,frogFront.png,HinCong,h,20,landoltCTop.png,,,,,5,65,465,70,,,h,0,0.550188117923,,,2020_Feb_26_1714,59.9631175573,duckFrog,001,7,
frog,ribbitR.wav,-20,landoltCL.png,V1,frogFront.png,duckFront.png,Lcong,b,20,landoltCBottom.png,,,,,5,66,466,20,,,b,0,1.40146535507,,,2020_Feb_26_1714,59.9631175573,duckFrog,001,7,
duck,ribbitR.wav,20,landoltCBottom.png,V1,frogFront.png,duckFront.png,HinCong,b,-20,landoltCR.png,,,,,5,67,467,42,,,h,0,0.483655514006,,,2020_Feb_26_1714,59.9631175573,duckFrog,001,7,
frog,quackL.wav,-20,landoltCL.png,V1,frogFront.png,duckFront.png,LinCong,h,20,landoltCTop.png,,,,,5,68,468,30,,,b,0,1.11746923473,,,2020_Feb_26_1714,59.9631175573,duckFrog,001,7,
duck,quackR.wav,-20,landoltCR.png,V1,duckFront.png,frogFront.png,Hcong,h,20,landoltCTop.png,,,,,5,69,469,36,,,h,0,0.55062542246,,,2020_Feb_26_1714,59.9631175573,duckFrog,001,7,
frog,wnL.wav,20,landoltCTop.png,V1,duckFront.png,frogFront.png,LcongWN,h,-20,landoltCL.png,,,,,5,70,470,25,,,h,0,1.16755911493,,,2020_Feb_26_1714,59.9631175573,duckFrog,001,7,
duck,ribbitL.wav,-20,landoltCR.png,V1,duckFront.png,frogFront.png,HinCong,h,20,landoltCTop.png,,,,,5,71,471,6,,,h,0,0.583752065562,,,2020_Feb_26_1714,59.9631175573,duckFrog,001,7,
duck,wnR.wav,-20,landoltCL.png,V1,duckFront.png,frogFront.png,HcongWN,b,20,landoltCBottom.png,,,,,5,72,472,77,,,b,0,0.767430599444,,,2020_Feb_26_1714,59.9631175573,duckFrog,001,7,
duck,ribbitR.wav,20,landoltCTop.png,V1,frogFront.png,duckFront.png,HinCong,h,-20,landoltCL.png,,,,,5,73,473,34,,,h,0,1.56785074902,,,2020_Feb_26_1714,59.9631175573,duckFrog,001,7,
duck,quackL.wav,20,landoltCTop.png,V1,frogFront.png,duckFront.png,Hcong,h,-20,landoltCL.png,,,,,5,74,474,32,,,h,0,0.834214662638,,,2020_Feb_26_1714,59.9631175573,duckFrog,001,7,
duck,wnL.wav,-20,landoltCL.png,V1,duckFront.png,frogFront.png,HinCongWN,b,20,landoltCBottom.png,,,,,5,75,475,15,,,b,0,0.950644336888,,,2020_Feb_26_1714,59.9631175573,duckFrog,001,7,
frog,wnL.wav,-20,landoltCR.png,V1,frogFront.png,duckFront.png,LinCongWN,h,20,landoltCTop.png,,,,,5,76,476,31,,,h,0,0.934282989183,,,2020_Feb_26_1714,59.9631175573,duckFrog,001,7,
duck,wnR.wav,20,landoltCBottom.png,V1,frogFront.png,duckFront.png,HinCongWN,b,-20,landoltCL.png,,,,,5,77,477,11,,,b,0,1.10082746962,,,2020_Feb_26_1714,59.9631175573,duckFrog,001,7,
duck,quackL.wav,20,landoltCTop.png,V1,frogFront.png,duckFront.png,Hcong,h,-20,landoltCL.png,,,,,5,78,478,48,,,h,0,0.917871789497,,,2020_Feb_26_1714,59.9631175573,duckFrog,001,7,
duck,wnR.wav,20,landoltCTop.png,V1,frogFront.png,duckFront.png,HinCongWN,h,-20,landoltCR.png,,,,,5,79,479,51,,,h,0,1.00114989464,,,2020_Feb_26_1714,59.9631175573,duckFrog,001,7,
duck,quackR.wav,-20,landoltCR.png,V1,duckFront.png,frogFront.png,Hcong,h,20,landoltCTop.png,,,,,6,0,480,68,,,h,0,0.984045165897,,,2020_Feb_26_1714,59.9631175573,duckFrog,001,7,
duck,ribbitL.wav,-20,landoltCR.png,V1,duckFront.png,frogFront.png,HinCong,b,20,landoltCBottom.png,,,,,6,1,481,78,,,h,0,0.717408166049,,,2020_Feb_26_1714,59.9631175573,duckFrog,001,7,
duck,wnR.wav,-20,landoltCL.png,V1,duckFront.png,frogFront.png,HcongWN,b,20,landoltCBottom.png,,,,,6,2,482,77,,,b,0,2.18545377768,,,2020_Feb_26_1714,59.9631175573,duckFrog,001,7,
duck,wnL.wav,-20,landoltCL.png,V1,duckFront.png,frogFront.png,HinCongWN,h,20,landoltCTop.png,,,,,6,3,483,55,,,h,0,0.533884319928,,,2020_Feb_26_1714,59.9631175573,duckFrog,001,7,
duck,wnL.wav,20,landoltCBottom.png,V1,frogFront.png,duckFront.png,HcongWN,b,-20,landoltCL.png,,,,,6,4,484,41,,,b,0,1.41789011743,,,2020_Feb_26_1714,59.9631175573,duckFrog,001,7,
duck,wnL.wav,-20,landoltCL.png,V1,duckFront.png,frogFront.png,HinCongWN,b,20,landoltCBottom.png,,,,,6,5,485,15,,,b,0,0.650382540669,,,2020_Feb_26_1714,59.9631175573,duckFrog,001,7,
duck,wnR.wav,20,landoltCBottom.png,V1,frogFront.png,duckFront.png,HinCongWN,b,-20,landoltCL.png,,,,,6,6,486,11,,,b,0,0.700545366039,,,2020_Feb_26_1714,59.9631175573,duckFrog,001,7,
duck,wnL.wav,20,landoltCTop.png,V1,frogFront.png,duckFront.png,HcongWN,h,-20,landoltCR.png,,,,,6,7,487,49,,,h,0,1.0177007532,,,2020_Feb_26_1714,59.9631175573,duckFrog,001,7,
duck,wnL.wav,20,landoltCBottom.png,V1,frogFront.png,duckFront.png,HcongWN,b,-20,landoltCL.png,,,,,6,8,488,73,,,b,0,0.784354981311,,,2020_Feb_26_1714,59.9631175573,duckFrog,001,7,
duck,quackL.wav,20,landoltCBottom.png,V1,frogFront.png,duckFront.png,Hcong,b,-20,landoltCR.png,,,,,6,9,489,56,,,b,0,1.20116118465,,,2020_Feb_26_1714,59.9631175573,duckFrog,001,7,
duck,ribbitL.wav,-20,landoltCR.png,V1,duckFront.png,frogFront.png,HinCong,h,20,landoltCTop.png,,,,,6,10,490,38,,,h,0,1.01745112673,,,2020_Feb_26_1714,59.9631175573,duckFrog,001,7,
duck,wnR.wav,-20,landoltCL.png,V1,duckFront.png,frogFront.png,HcongWN,b,20,landoltCBottom.png,,,,,6,11,491,61,,,b,0,0.934283355746,,,2020_Feb_26_1714,59.9631175573,duckFrog,001,7,
duck,quackR.wav,-20,landoltCR.png,V1,duckFront.png,frogFront.png,Hcong,h,20,landoltCTop.png,,,,,6,12,492,4,,,h,0,0.634033289389,,,2020_Feb_26_1714,59.9631175573,duckFrog,001,7,
duck,ribbitR.wav,20,landoltCTop.png,V1,frogFront.png,duckFront.png,HinCong,h,-20,landoltCL.png,,,,,6,13,493,34,,,h,0,1.10083883295,,,2020_Feb_26_1714,59.9631175573,duckFrog,001,7,
duck,wnL.wav,-20,landoltCL.png,V1,duckFront.png,frogFront.png,HinCongWN,b,20,landoltCBottom.png,,,,,6,14,494,47,,,b,0,0.600578942816,,,2020_Feb_26_1714,59.9631175573,duckFrog,001,7,
duck,ribbitL.wav,-20,landoltCR.png,V1,duckFront.png,frogFront.png,HinCong,h,20,landoltCTop.png,,,,,6,15,495,54,,,h,0,0.53395359953,,,2020_Feb_26_1714,59.9631175573,duckFrog,001,7,
duck,ribbitR.wav,20,landoltCBottom.png,V1,frogFront.png,duckFront.png,HinCong,b,-20,landoltCR.png,,,,,6,16,496,10,,,b,0,0.566813021345,,,2020_Feb_26_1714,59.9631175573,duckFrog,001,7,
duck,quackL.wav,20,landoltCBottom.png,V1,frogFront.png,duckFront.png,Hcong,b,-20,landoltCR.png,,,,,6,17,497,8,,,b,0,1.1010584016,,,2020_Feb_26_1714,59.9631175573,duckFrog,001,7,
duck,quackR.wav,-20,landoltCR.png,V1,duckFront.png,frogFront.png,Hcong,b,20,landoltCBottom.png,,,,,6,18,498,44,,,b,0,0.450131887832,,,2020_Feb_26_1714,59.9631175573,duckFrog,001,7,
frog,wnR.wav,-20,landoltCR.png,V1,frogFront.png,duckFront.png,LcongWN,h,20,landoltCTop.png,,,,,6,19,499,29,,,h,0,1.35131462612,,,2020_Feb_26_1714,59.9631175573,duckFrog,001,7,
duck,quackR.wav,-20,landoltCR.png,V1,duckFront.png,frogFront.png,Hcong,b,20,landoltCBottom.png,,,,,6,20,500,60,,,b,0,0.4171936559,,,2020_Feb_26_1714,59.9631175573,duckFrog,001,7,
frog,ribbitL.wav,20,landoltCBottom.png,V1,duckFront.png,frogFront.png,Lcong,b,-20,landoltCL.png,,,,,6,21,501,16,,,b,0,1.28427287217,,,2020_Feb_26_1714,59.9631175573,duckFrog,001,7,
duck,quackL.wav,20,landoltCTop.png,V1,frogFront.png,duckFront.png,Hcong,h,-20,landoltCL.png,,,,,6,22,502,48,,,h,0,0.650702912972,,,2020_Feb_26_1714,59.9631175573,duckFrog,001,7,
duck,ribbitL.wav,-20,landoltCR.png,V1,duckFront.png,frogFront.png,HinCong,h,20,landoltCTop.png,,,,,6,23,503,70,,,s,0,1.66787618821,,,2020_Feb_26_1714,59.9631175573,duckFrog,001,7,
duck,quackL.wav,20,landoltCTop.png,V1,frogFront.png,duckFront.png,Hcong,h,-20,landoltCL.png,,,,,6,24,504,64,,,h,0,0.500773438864,,,2020_Feb_26_1714,59.9631175573,duckFrog,001,7,
duck,wnL.wav,-20,landoltCL.png,V1,duckFront.png,frogFront.png,HinCongWN,h,20,landoltCTop.png,,,,,6,25,505,39,,,h,0,0.850642357473,,,2020_Feb_26_1714,59.9631175573,duckFrog,001,7,
frog,quackL.wav,-20,landoltCL.png,V1,frogFront.png,duckFront.png,LinCong,h,20,landoltCTop.png,,,,,6,26,506,30,,,h,0,0.734154400387,,,2020_Feb_26_1714,59.9631175573,duckFrog,001,7,
duck,ribbitR.wav,20,landoltCBottom.png,V1,frogFront.png,duckFront.png,HinCong,b,-20,landoltCR.png,,,,,6,27,507,42,,,b,0,1.2509435221,,,2020_Feb_26_1714,59.9631175573,duckFrog,001,7,
duck,ribbitR.wav,20,landoltCBottom.png,V1,frogFront.png,duckFront.png,HinCong,b,-20,landoltCR.png,,,,,6,28,508,58,,,b,0,1.70156439923,,,2020_Feb_26_1714,59.9631175573,duckFrog,001,7,
frog,wnL.wav,20,landoltCBottom.png,V1,duckFront.png,frogFront.png,LcongWN,b,-20,landoltCR.png,,,,,6,29,509,17,,,h,0,1.25116822259,,,2020_Feb_26_1714,59.9631175573,duckFrog,001,7,
frog,quackL.wav,-20,landoltCL.png,V1,frogFront.png,duckFront.png,LinCong,b,20,landoltCBottom.png,,,,,6,30,510,22,,,b,0,0.850612666225,,,2020_Feb_26_1714,59.9631175573,duckFrog,001,7,
duck,wnL.wav,20,landoltCBottom.png,V1,frogFront.png,duckFront.png,HcongWN,b,-20,landoltCL.png,,,,,6,31,511,57,,,b,0,1.01742656728,,,2020_Feb_26_1714,59.9631175573,duckFrog,001,7,
duck,ribbitL.wav,-20,landoltCR.png,V1,duckFront.png,frogFront.png,HinCong,b,20,landoltCBottom.png,,,,,6,32,512,14,,,b,0,0.851772091395,,,2020_Feb_26_1714,59.9631175573,duckFrog,001,7,
duck,wnR.wav,-20,landoltCL.png,V1,duckFront.png,frogFront.png,HcongWN,b,20,landoltCBottom.png,,,,,6,33,513,13,,,s,0,1.85148141034,,,2020_Feb_26_1714,59.9631175573,duckFrog,001,7,
duck,wnR.wav,20,landoltCTop.png,V1,frogFront.png,duckFront.png,HinCongWN,h,-20,landoltCR.png,,,,,6,34,514,35,,,h,0,0.933788501497,,,2020_Feb_26_1714,59.9631175573,duckFrog,001,7,
duck,wnR.wav,20,landoltCBottom.png,V1,frogFront.png,duckFront.png,HinCongWN,b,-20,landoltCL.png,,,,,6,35,515,59,,,b,0,1.20115678594,,,2020_Feb_26_1714,59.9631175573,duckFrog,001,7,
duck,wnR.wav,-20,landoltCL.png,V1,duckFront.png,frogFront.png,HcongWN,h,20,landoltCTop.png,,,,,6,36,516,69,,,h,0,1.00078590187,,,2020_Feb_26_1714,59.9631175573,duckFrog,001,7,
duck,ribbitL.wav,-20,landoltCR.png,V1,duckFront.png,frogFront.png,HinCong,b,20,landoltCBottom.png,,,,,6,37,517,46,,,b,0,1.48484536355,,,2020_Feb_26_1714,59.9631175573,duckFrog,001,7,
duck,wnR.wav,20,landoltCTop.png,V1,frogFront.png,duckFront.png,HinCongWN,h,-20,landoltCR.png,,,,,6,38,518,51,,,h,0,0.617088746803,,,2020_Feb_26_1714,59.9631175573,duckFrog,001,7,
duck,wnR.wav,20,landoltCTop.png,V1,frogFront.png,duckFront.png,HinCongWN,h,-20,landoltCR.png,,,,,6,39,519,67,,,h,0,0.60067461463,,,2020_Feb_26_1714,59.9631175573,duckFrog,001,7,
duck,wnL.wav,-20,landoltCL.png,V1,duckFront.png,frogFront.png,HinCongWN,b,20,landoltCBottom.png,,,,,6,40,520,79,,,b,0,1.16748873565,,,2020_Feb_26_1714,59.9631175573,duckFrog,001,7,
frog,quackR.wav,20,landoltCBottom.png,V1,duckFront.png,frogFront.png,LinCong,b,-20,landoltCL.png,,,,,6,41,521,18,,,b,0,0.750567066323,,,2020_Feb_26_1714,59.9631175573,duckFrog,001,7,
frog,wnL.wav,-20,landoltCR.png,V1,frogFront.png,duckFront.png,LinCongWN,h,20,landoltCTop.png,,,,,6,42,522,31,,,h,0,1.01740530689,,,2020_Feb_26_1714,59.9631175573,duckFrog,001,7,
duck,quackR.wav,-20,landoltCR.png,V1,duckFront.png,frogFront.png,Hcong,h,20,landoltCTop.png,,,,,6,43,523,52,,,h,0,0.86770786444,,,2020_Feb_26_1714,59.9631175573,duckFrog,001,7,
duck,ribbitR.wav,20,landoltCTop.png,V1,frogFront.png,duckFront.png,HinCong,h,-20,landoltCL.png,,,,,6,44,524,66,,,h,0,0.767165577505,,,2020_Feb_26_1714,59.9631175573,duckFrog,001,7,
duck,wnR.wav,-20,landoltCL.png,V1,duckFront.png,frogFront.png,HcongWN,h,20,landoltCTop.png,,,,,6,45,525,5,,,h,0,0.667104582128,,,2020_Feb_26_1714,59.9631175573,duckFrog,001,7,
duck,ribbitR.wav,20,landoltCBottom.png,V1,frogFront.png,duckFront.png,HinCong,b,-20,landoltCR.png,,,,,6,46,526,74,,,b,0,0.867337640157,,,2020_Feb_26_1714,59.9631175573,duckFrog,001,7,
duck,wnR.wav,20,landoltCBottom.png,V1,frogFront.png,duckFront.png,HinCongWN,b,-20,landoltCL.png,,,,,6,47,527,75,,,b,0,0.417160665616,,,2020_Feb_26_1714,59.9631175573,duckFrog,001,7,
frog,wnL.wav,20,landoltCTop.png,V1,duckFront.png,frogFront.png,LcongWN,h,-20,landoltCL.png,,,,,6,48,528,25,,,h,0,1.20116228434,,,2020_Feb_26_1714,59.9631175573,duckFrog,001,7,
duck,wnL.wav,-20,landoltCL.png,V1,duckFront.png,frogFront.png,HinCongWN,h,20,landoltCTop.png,,,,,6,49,529,71,,,h,0,1.18422250698,,,2020_Feb_26_1714,59.9631175573,duckFrog,001,7,
duck,quackR.wav,-20,landoltCR.png,V1,duckFront.png,frogFront.png,Hcong,h,20,landoltCTop.png,,,,,6,50,530,36,,,h,0,0.56750545073,,,2020_Feb_26_1714,59.9631175573,duckFrog,001,7,
duck,quackL.wav,20,landoltCBottom.png,V1,frogFront.png,duckFront.png,Hcong,b,-20,landoltCR.png,,,,,6,51,531,40,,,b,0,0.883745540807,,,2020_Feb_26_1714,59.9631175573,duckFrog,001,7,
duck,wnR.wav,20,landoltCBottom.png,V1,frogFront.png,duckFront.png,HinCongWN,b,-20,landoltCL.png,,,,,6,52,532,43,,,b,0,0.867563806882,,,2020_Feb_26_1714,59.9631175573,duckFrog,001,7,
duck,quackR.wav,-20,landoltCR.png,V1,duckFront.png,frogFront.png,Hcong,b,20,landoltCBottom.png,,,,,6,53,533,76,,,b,0,0.633532203647,,,2020_Feb_26_1714,59.9631175573,duckFrog,001,7,
duck,ribbitL.wav,-20,landoltCR.png,V1,duckFront.png,frogFront.png,HinCong,h,20,landoltCTop.png,,,,,6,54,534,6,,,h,0,0.734106014643,,,2020_Feb_26_1714,59.9631175573,duckFrog,001,7,
duck,wnL.wav,20,landoltCTop.png,V1,frogFront.png,duckFront.png,HcongWN,h,-20,landoltCR.png,,,,,6,55,535,33,,,h,0,0.717173568468,,,2020_Feb_26_1714,59.9631175573,duckFrog,001,7,
duck,quackL.wav,20,landoltCBottom.png,V1,frogFront.png,duckFront.png,Hcong,b,-20,landoltCR.png,,,,,6,56,536,72,,,b,0,0.450424035109,,,2020_Feb_26_1714,59.9631175573,duckFrog,001,7,
frog,wnL.wav,-20,landoltCR.png,V1,frogFront.png,duckFront.png,LinCongWN,b,20,landoltCBottom.png,,,,,6,57,537,23,,,b,0,0.933800597937,,,2020_Feb_26_1714,59.9631175573,duckFrog,001,7,
frog,wnR.wav,20,landoltCBottom.png,V1,duckFront.png,frogFront.png,LinCongWN,b,-20,landoltCR.png,,,,,6,58,538,19,,,b,0,1.05080356997,,,2020_Feb_26_1714,59.9631175573,duckFrog,001,7,
frog,wnR.wav,-20,landoltCR.png,V1,frogFront.png,duckFront.png,LcongWN,b,20,landoltCBottom.png,,,,,6,59,539,21,,,b,0,1.08410359536,,,2020_Feb_26_1714,59.9631175573,duckFrog,001,7,
duck,ribbitR.wav,20,landoltCTop.png,V1,frogFront.png,duckFront.png,HinCong,h,-20,landoltCL.png,,,,,6,60,540,50,,,h,0,0.65048297774,,,2020_Feb_26_1714,59.9631175573,duckFrog,001,7,
frog,quackR.wav,20,landoltCTop.png,V1,duckFront.png,frogFront.png,LinCong,h,-20,landoltCR.png,,,,,6,61,541,26,,,h,0,0.834172874951,,,2020_Feb_26_1714,59.9631175573,duckFrog,001,7,
duck,wnR.wav,-20,landoltCL.png,V1,duckFront.png,frogFront.png,HcongWN,h,20,landoltCTop.png,,,,,6,62,542,37,,,h,0,1.25082292428,,,2020_Feb_26_1714,59.9631175573,duckFrog,001,7,
duck,quackL.wav,20,landoltCTop.png,V1,frogFront.png,duckFront.png,Hcong,h,-20,landoltCL.png,,,,,6,63,543,0,,,h,0,0.900880693953,,,2020_Feb_26_1714,59.9631175573,duckFrog,001,7,
duck,wnL.wav,20,landoltCTop.png,V1,frogFront.png,duckFront.png,HcongWN,h,-20,landoltCR.png,,,,,6,64,544,1,,,h,0,0.700945281584,,,2020_Feb_26_1714,59.9631175573,duckFrog,001,7,
duck,wnR.wav,-20,landoltCL.png,V1,duckFront.png,frogFront.png,HcongWN,b,20,landoltCBottom.png,,,,,6,65,545,45,,,b,0,1.38434962954,,,2020_Feb_26_1714,59.9631175573,duckFrog,001,7,
duck,quackR.wav,-20,landoltCR.png,V1,duckFront.png,frogFront.png,Hcong,b,20,landoltCBottom.png,,,,,6,66,546,12,,,b,0,0.517303770132,,,2020_Feb_26_1714,59.9631175573,duckFrog,001,7,
duck,wnR.wav,20,landoltCTop.png,V1,frogFront.png,duckFront.png,HinCongWN,h,-20,landoltCR.png,,,,,6,67,547,3,,,h,0,0.86731637975,,,2020_Feb_26_1714,59.9631175573,duckFrog,001,7,
duck,quackL.wav,20,landoltCTop.png,V1,frogFront.png,duckFront.png,Hcong,h,-20,landoltCL.png,,,,,6,68,548,32,,,h,0,0.600651521439,,,2020_Feb_26_1714,59.9631175573,duckFrog,001,7,
duck,wnL.wav,20,landoltCBottom.png,V1,frogFront.png,duckFront.png,HcongWN,b,-20,landoltCL.png,,,,,6,69,549,9,,,b,0,0.65443594681,,,2020_Feb_26_1714,59.9631175573,duckFrog,001,7,
