targetAnim,audioPos,distPos,visualL,expLab,picR,picL,condLabel,corrAns,targetPos,visualR,pracTrials1a.thisRepN,pracTrials1a.thisTrialN,pracTrials1a.thisN,pracTrials1a.thisIndex,exp1a.thisRepN,exp1a.thisTrialN,exp1a.thisN,exp1a.thisIndex,pressToCont.keys,pressToCont.rt,key_resp_2.keys,key_resp_2.corr,key_resp_2.rt,spaceToBegin.keys,spaceToBegin.rt,date,frameRate,expName,session,participant,
,,,,,,,,,,,,,,,,,,,space,10.8755604185,,,,,,2020_Mar_04_0810,59.961162873,duckFrog,001,8,
duck,ribbitL.wav,-20,landoltCR.png,prac,duckFront.png,frogFront.png,HinCong,h,20,landoltCTop.png,0,0,0,1,,,,,,,b,0,3.73736031921,,,2020_Mar_04_0810,59.961162873,duckFrog,001,8,
duck,wnL.wav,20,landoltCBottom.png,prac,frogFront.png,duckFront.png,HcongWN,b,-20,landoltCL.png,0,1,1,4,,,,,,,b,0,16.0960428431,,,2020_Mar_04_0810,59.961162873,duckFrog,001,8,
frog,ribbitR.wav,-20,landoltCL.png,prac,frogFront.png,duckFront.png,Lcong,b,20,landoltCBottom.png,0,2,2,3,,,,,,,b,0,0.717164541536,,,2020_Mar_04_0810,59.961162873,duckFrog,001,8,
duck,quackL.wav,20,landoltCTop.png,prac,frogFront.png,duckFront.png,Hcong,h,-20,landoltCL.png,0,3,3,0,,,,,,,h,0,0.600462960399,,,2020_Mar_04_0810,59.961162873,duckFrog,001,8,
frog,wnR.wav,20,landoltCBottom.png,prac,duckFront.png,frogFront.png,LinCongWN,b,-20,landoltCR.png,0,4,4,2,,,,,,,b,0,0.533991301636,,,2020_Mar_04_0810,59.961162873,duckFrog,001,8,
,,,,,,,,,,,,,,,,,,,,,,,,space,3.21992342643,2020_Mar_04_0810,59.961162873,duckFrog,001,8,
frog,wnR.wav,20,landoltCBottom.png,V2,duckFront.png,frogFront.png,HinCongWN,b,-20,landoltCR.png,,,,,0,0,0,19,,,b,0,0.500629560178,,,2020_Mar_04_0810,59.961162873,duckFrog,001,8,
frog,quackR.wav,20,landoltCBottom.png,V2,duckFront.png,frogFront.png,HinCong,b,-20,landoltCL.png,,,,,0,1,1,18,,,b,0,0.533958678134,,,2020_Mar_04_0810,59.961162873,duckFrog,001,8,
frog,ribbitR.wav,-20,landoltCL.png,V2,frogFront.png,duckFront.png,Hcong,h,20,landoltCTop.png,,,,,0,2,2,28,,,h,0,0.767927436536,,,2020_Mar_04_0810,59.961162873,duckFrog,001,8,
duck,ribbitL.wav,-20,landoltCR.png,V2,duckFront.png,frogFront.png,LinCong,b,20,landoltCBottom.png,,,,,0,3,3,14,,,b,0,0.834365372168,,,2020_Mar_04_0810,59.961162873,duckFrog,001,8,
duck,ribbitL.wav,-20,landoltCR.png,V2,duckFront.png,frogFront.png,LinCong,h,20,landoltCTop.png,,,,,0,4,4,6,,,h,0,1.95159626039,,,2020_Mar_04_0810,59.961162873,duckFrog,001,8,
frog,wnR.wav,-20,landoltCR.png,V2,frogFront.png,duckFront.png,HcongWN,h,20,landoltCTop.png,,,,,0,5,5,77,,,h,0,0.700782780652,,,2020_Mar_04_0810,59.961162873,duckFrog,001,8,
frog,wnR.wav,20,landoltCTop.png,V2,duckFront.png,frogFront.png,HinCongWN,h,-20,landoltCL.png,,,,,0,6,6,27,,,b,0,0.700626627746,,,2020_Mar_04_0810,59.961162873,duckFrog,001,8,
duck,wnL.wav,20,landoltCBottom.png,V2,frogFront.png,duckFront.png,LcongWN,b,-20,landoltCL.png,,,,,0,7,7,9,,,b,0,1.58486416345,,,2020_Mar_04_0810,59.961162873,duckFrog,001,8,
frog,wnL.wav,20,landoltCTop.png,V2,duckFront.png,frogFront.png,HcongWN,h,-20,landoltCL.png,,,,,0,8,8,57,,,h,0,1.11782837476,,,2020_Mar_04_0810,59.961162873,duckFrog,001,8,
frog,quackR.wav,20,landoltCTop.png,V2,duckFront.png,frogFront.png,HinCong,h,-20,landoltCR.png,,,,,0,9,9,42,,,b,0,1.25122842129,,,2020_Mar_04_0810,59.961162873,duckFrog,001,8,
duck,quackR.wav,-20,landoltCR.png,V2,duckFront.png,frogFront.png,Lcong,h,20,landoltCTop.png,,,,,0,10,10,4,,,h,0,1.15094892224,,,2020_Mar_04_0810,59.961162873,duckFrog,001,8,
duck,wnR.wav,20,landoltCTop.png,V2,frogFront.png,duckFront.png,LinCongWN,h,-20,landoltCR.png,,,,,0,11,11,3,,,h,0,0.833982320997,,,2020_Mar_04_0810,59.961162873,duckFrog,001,8,
frog,quackR.wav,20,landoltCBottom.png,V2,duckFront.png,frogFront.png,HinCong,b,-20,landoltCL.png,,,,,0,12,12,66,,,h,0,0.750871945434,,,2020_Mar_04_0810,59.961162873,duckFrog,001,8,
frog,quackR.wav,20,landoltCTop.png,V2,duckFront.png,frogFront.png,HinCong,h,-20,landoltCR.png,,,,,0,13,13,74,,,h,0,1.63478361274,,,2020_Mar_04_0810,59.961162873,duckFrog,001,8,
duck,wnR.wav,-20,landoltCL.png,V2,duckFront.png,frogFront.png,LcongWN,h,20,landoltCTop.png,,,,,0,14,14,5,,,b,0,1.16770017173,,,2020_Mar_04_0810,59.961162873,duckFrog,001,8,
duck,wnR.wav,-20,landoltCL.png,V2,duckFront.png,frogFront.png,LcongWN,b,20,landoltCBottom.png,,,,,0,15,15,13,,,b,0,1.43481477004,,,2020_Mar_04_0810,59.961162873,duckFrog,001,8,
frog,ribbitR.wav,-20,landoltCL.png,V2,frogFront.png,duckFront.png,Hcong,b,20,landoltCBottom.png,,,,,0,16,16,52,,,b,0,1.51821472493,,,2020_Mar_04_0810,59.961162873,duckFrog,001,8,
frog,quackL.wav,-20,landoltCL.png,V2,frogFront.png,duckFront.png,HinCong,h,20,landoltCTop.png,,,,,0,17,17,62,,,h,0,1.11924218183,,,2020_Mar_04_0810,59.961162873,duckFrog,001,8,
frog,ribbitL.wav,20,landoltCTop.png,V2,duckFront.png,frogFront.png,Hcong,h,-20,landoltCR.png,,,,,0,18,18,24,,,h,0,1.18427400806,,,2020_Mar_04_0810,59.961162873,duckFrog,001,8,
frog,wnR.wav,-20,landoltCR.png,V2,frogFront.png,duckFront.png,HcongWN,h,20,landoltCTop.png,,,,,0,19,19,45,,,b,0,1.13425815449,,,2020_Mar_04_0810,59.961162873,duckFrog,001,8,
frog,quackL.wav,-20,landoltCL.png,V2,frogFront.png,duckFront.png,HinCong,b,20,landoltCBottom.png,,,,,0,20,20,38,,,b,0,1.30122668014,,,2020_Mar_04_0810,59.961162873,duckFrog,001,8,
frog,quackL.wav,-20,landoltCL.png,V2,frogFront.png,duckFront.png,HinCong,h,20,landoltCTop.png,,,,,0,21,21,46,,,h,0,1.01775121468,,,2020_Mar_04_0810,59.961162873,duckFrog,001,8,
duck,wnL.wav,-20,landoltCL.png,V2,duckFront.png,frogFront.png,LinCongWN,h,20,landoltCTop.png,,,,,0,22,22,7,,,h,0,1.25125371368,,,2020_Mar_04_0810,59.961162873,duckFrog,001,8,
frog,wnR.wav,-20,landoltCR.png,V2,frogFront.png,duckFront.png,HcongWN,h,20,landoltCTop.png,,,,,0,23,23,29,,,h,0,1.25113714882,,,2020_Mar_04_0810,59.961162873,duckFrog,001,8,
frog,wnR.wav,20,landoltCBottom.png,V2,duckFront.png,frogFront.png,HinCongWN,b,-20,landoltCR.png,,,,,0,24,24,51,,,b,0,0.883929261996,,,2020_Mar_04_0810,59.961162873,duckFrog,001,8,
frog,ribbitL.wav,20,landoltCBottom.png,V2,duckFront.png,frogFront.png,Hcong,b,-20,landoltCL.png,,,,,0,25,25,32,,,h,0,0.850907318119,,,2020_Mar_04_0810,59.961162873,duckFrog,001,8,
frog,ribbitR.wav,-20,landoltCL.png,V2,frogFront.png,duckFront.png,Hcong,b,20,landoltCBottom.png,,,,,0,26,26,20,,,b,0,1.30103643751,,,2020_Mar_04_0810,59.961162873,duckFrog,001,8,
frog,quackR.wav,20,landoltCBottom.png,V2,duckFront.png,frogFront.png,HinCong,b,-20,landoltCL.png,,,,,0,27,27,50,,,b,0,0.800624978234,,,2020_Mar_04_0810,59.961162873,duckFrog,001,8,
frog,wnR.wav,20,landoltCBottom.png,V2,duckFront.png,frogFront.png,HinCongWN,b,-20,landoltCR.png,,,,,0,28,28,35,,,b,0,0.851100493193,,,2020_Mar_04_0810,59.961162873,duckFrog,001,8,
frog,wnR.wav,20,landoltCTop.png,V2,duckFront.png,frogFront.png,HinCongWN,h,-20,landoltCL.png,,,,,0,29,29,59,,,h,0,1.33462764311,,,2020_Mar_04_0810,59.961162873,duckFrog,001,8,
frog,ribbitL.wav,20,landoltCBottom.png,V2,duckFront.png,frogFront.png,Hcong,b,-20,landoltCL.png,,,,,0,30,30,16,,,b,0,0.617891239148,,,2020_Mar_04_0810,59.961162873,duckFrog,001,8,
frog,wnR.wav,20,landoltCTop.png,V2,duckFront.png,frogFront.png,HinCongWN,h,-20,landoltCL.png,,,,,0,31,31,75,,,h,0,1.40131337068,,,2020_Mar_04_0810,59.961162873,duckFrog,001,8,
frog,wnR.wav,-20,landoltCR.png,V2,frogFront.png,duckFront.png,HcongWN,b,20,landoltCBottom.png,,,,,0,32,32,69,,,b,0,1.26766150005,,,2020_Mar_04_0810,59.961162873,duckFrog,001,8,
frog,ribbitR.wav,-20,landoltCL.png,V2,frogFront.png,duckFront.png,Hcong,h,20,landoltCTop.png,,,,,0,33,33,44,,,h,0,1.2512133925,,,2020_Mar_04_0810,59.961162873,duckFrog,001,8,
frog,ribbitL.wav,20,landoltCTop.png,V2,duckFront.png,frogFront.png,Hcong,h,-20,landoltCR.png,,,,,0,34,34,72,,,h,0,0.967452013225,,,2020_Mar_04_0810,59.961162873,duckFrog,001,8,
frog,wnR.wav,20,landoltCBottom.png,V2,duckFront.png,frogFront.png,HinCongWN,b,-20,landoltCR.png,,,,,0,35,35,67,,,b,0,1.70151515986,,,2020_Mar_04_0810,59.961162873,duckFrog,001,8,
frog,wnL.wav,-20,landoltCR.png,V2,frogFront.png,duckFront.png,HinCongWN,h,20,landoltCTop.png,,,,,0,36,36,79,,,h,0,1.01740078698,,,2020_Mar_04_0810,59.961162873,duckFrog,001,8,
frog,wnL.wav,-20,landoltCR.png,V2,frogFront.png,duckFront.png,HinCongWN,b,20,landoltCBottom.png,,,,,0,37,37,23,,,b,0,1.1680341044,,,2020_Mar_04_0810,59.961162873,duckFrog,001,8,
duck,ribbitR.wav,20,landoltCTop.png,V2,frogFront.png,duckFront.png,LinCong,h,-20,landoltCL.png,,,,,0,38,38,2,,,h,0,1.15075684682,,,2020_Mar_04_0810,59.961162873,duckFrog,001,8,
frog,wnL.wav,-20,landoltCR.png,V2,frogFront.png,duckFront.png,HinCongWN,b,20,landoltCBottom.png,,,,,0,39,39,71,,,b,0,1.1174728153,,,2020_Mar_04_0810,59.961162873,duckFrog,001,8,
duck,wnR.wav,20,landoltCBottom.png,V2,frogFront.png,duckFront.png,LinCongWN,b,-20,landoltCL.png,,,,,0,40,40,11,,,b,0,1.20095157975,,,2020_Mar_04_0810,59.961162873,duckFrog,001,8,
frog,wnL.wav,-20,landoltCR.png,V2,frogFront.png,duckFront.png,HinCongWN,h,20,landoltCTop.png,,,,,0,41,41,63,,,h,0,0.984239551763,,,2020_Mar_04_0810,59.961162873,duckFrog,001,8,
frog,wnR.wav,-20,landoltCR.png,V2,frogFront.png,duckFront.png,HcongWN,h,20,landoltCTop.png,,,,,0,42,42,61,,,h,0,1.00099116782,,,2020_Mar_04_0810,59.961162873,duckFrog,001,8,
frog,ribbitL.wav,20,landoltCBottom.png,V2,duckFront.png,frogFront.png,Hcong,b,-20,landoltCL.png,,,,,0,43,43,64,,,b,0,0.617095079186,,,2020_Mar_04_0810,59.961162873,duckFrog,001,8,
frog,quackL.wav,-20,landoltCL.png,V2,frogFront.png,duckFront.png,HinCong,h,20,landoltCTop.png,,,,,0,44,44,30,,,h,0,1.55118425129,,,2020_Mar_04_0810,59.961162873,duckFrog,001,8,
frog,wnL.wav,20,landoltCBottom.png,V2,duckFront.png,frogFront.png,HcongWN,b,-20,landoltCR.png,,,,,0,45,45,49,,,b,0,1.03413444181,,,2020_Mar_04_0810,59.961162873,duckFrog,001,8,
frog,quackL.wav,-20,landoltCL.png,V2,frogFront.png,duckFront.png,HinCong,h,20,landoltCTop.png,,,,,0,46,46,78,,,h,0,1.10088431669,,,2020_Mar_04_0810,59.961162873,duckFrog,001,8,
frog,ribbitL.wav,20,landoltCBottom.png,V2,duckFront.png,frogFront.png,Hcong,b,-20,landoltCL.png,,,,,0,47,47,48,,,b,0,0.917384108703,,,2020_Mar_04_0810,59.961162873,duckFrog,001,8,
frog,ribbitL.wav,20,landoltCTop.png,V2,duckFront.png,frogFront.png,Hcong,h,-20,landoltCR.png,,,,,0,48,48,56,,,h,0,0.950759412692,,,2020_Mar_04_0810,59.961162873,duckFrog,001,8,
frog,ribbitL.wav,20,landoltCTop.png,V2,duckFront.png,frogFront.png,Hcong,h,-20,landoltCR.png,,,,,0,49,49,40,,,h,0,1.10107969114,,,2020_Mar_04_0810,59.961162873,duckFrog,001,8,
frog,wnR.wav,-20,landoltCR.png,V2,frogFront.png,duckFront.png,HcongWN,b,20,landoltCBottom.png,,,,,0,50,50,53,,,b,0,1.33428454652,,,2020_Mar_04_0810,59.961162873,duckFrog,001,8,
frog,wnL.wav,-20,landoltCR.png,V2,frogFront.png,duckFront.png,HinCongWN,b,20,landoltCBottom.png,,,,,0,51,51,55,,,h,0,0.96829949104,,,2020_Mar_04_0810,59.961162873,duckFrog,001,8,
duck,wnL.wav,20,landoltCTop.png,V2,frogFront.png,duckFront.png,LcongWN,h,-20,landoltCR.png,,,,,0,52,52,1,,,b,0,1.23429206095,,,2020_Mar_04_0810,59.961162873,duckFrog,001,8,
frog,wnL.wav,-20,landoltCR.png,V2,frogFront.png,duckFront.png,HinCongWN,b,20,landoltCBottom.png,,,,,0,53,53,39,,,b,0,1.21761302301,,,2020_Mar_04_0810,59.961162873,duckFrog,001,8,
frog,wnL.wav,20,landoltCBottom.png,V2,duckFront.png,frogFront.png,HcongWN,b,-20,landoltCR.png,,,,,0,54,54,17,,,b,0,0.767121746117,,,2020_Mar_04_0810,59.961162873,duckFrog,001,8,
frog,quackR.wav,20,landoltCTop.png,V2,duckFront.png,frogFront.png,HinCong,h,-20,landoltCR.png,,,,,0,55,55,26,,,h,0,0.917573251645,,,2020_Mar_04_0810,59.961162873,duckFrog,001,8,
frog,quackR.wav,20,landoltCBottom.png,V2,duckFront.png,frogFront.png,HinCong,b,-20,landoltCL.png,,,,,0,56,56,34,,,b,0,0.967696139589,,,2020_Mar_04_0810,59.961162873,duckFrog,001,8,
frog,wnR.wav,-20,landoltCR.png,V2,frogFront.png,duckFront.png,HcongWN,b,20,landoltCBottom.png,,,,,0,57,57,37,,,b,0,0.66720807011,,,2020_Mar_04_0810,59.961162873,duckFrog,001,8,
frog,ribbitR.wav,-20,landoltCL.png,V2,frogFront.png,duckFront.png,Hcong,b,20,landoltCBottom.png,,,,,0,58,58,68,,,b,0,0.700780214771,,,2020_Mar_04_0810,59.961162873,duckFrog,001,8,
duck,ribbitR.wav,20,landoltCBottom.png,V2,frogFront.png,duckFront.png,LinCong,b,-20,landoltCR.png,,,,,0,59,59,10,,,b,0,0.683876111347,,,2020_Mar_04_0810,59.961162873,duckFrog,001,8,
frog,wnL.wav,-20,landoltCR.png,V2,frogFront.png,duckFront.png,HinCongWN,h,20,landoltCTop.png,,,,,0,60,60,31,,,h,0,0.533709419949,,,2020_Mar_04_0810,59.961162873,duckFrog,001,8,
frog,wnL.wav,20,landoltCTop.png,V2,duckFront.png,frogFront.png,HcongWN,h,-20,landoltCL.png,,,,,0,61,61,73,,,h,0,0.783912217128,,,2020_Mar_04_0810,59.961162873,duckFrog,001,8,
duck,quackL.wav,20,landoltCBottom.png,V2,frogFront.png,duckFront.png,Lcong,b,-20,landoltCR.png,,,,,0,62,62,8,,,b,0,0.93426988431,,,2020_Mar_04_0810,59.961162873,duckFrog,001,8,
duck,quackL.wav,20,landoltCTop.png,V2,frogFront.png,duckFront.png,Lcong,h,-20,landoltCL.png,,,,,0,63,63,0,,,h,0,0.850872861833,,,2020_Mar_04_0810,59.961162873,duckFrog,001,8,
frog,wnL.wav,20,landoltCBottom.png,V2,duckFront.png,frogFront.png,HcongWN,b,-20,landoltCR.png,,,,,0,64,64,65,,,b,0,0.934337697166,,,2020_Mar_04_0810,59.961162873,duckFrog,001,8,
duck,wnL.wav,-20,landoltCL.png,V2,duckFront.png,frogFront.png,LinCongWN,b,20,landoltCBottom.png,,,,,0,65,65,15,,,b,0,1.20095891089,,,2020_Mar_04_0810,59.961162873,duckFrog,001,8,
duck,quackR.wav,-20,landoltCR.png,V2,duckFront.png,frogFront.png,Lcong,b,20,landoltCBottom.png,,,,,0,66,66,12,,,b,0,1.36799488286,,,2020_Mar_04_0810,59.961162873,duckFrog,001,8,
frog,wnL.wav,-20,landoltCR.png,V2,frogFront.png,duckFront.png,HinCongWN,h,20,landoltCTop.png,,,,,0,67,67,47,,,h,0,1.45137431065,,,2020_Mar_04_0810,59.961162873,duckFrog,001,8,
frog,quackL.wav,-20,landoltCL.png,V2,frogFront.png,duckFront.png,HinCong,b,20,landoltCBottom.png,,,,,0,68,68,54,,,b,0,2.26865486722,,,2020_Mar_04_0810,59.961162873,duckFrog,001,8,
frog,ribbitR.wav,-20,landoltCL.png,V2,frogFront.png,duckFront.png,Hcong,b,20,landoltCBottom.png,,,,,0,69,69,36,,,b,0,1.11797646343,,,2020_Mar_04_0810,59.961162873,duckFrog,001,8,
frog,wnL.wav,20,landoltCTop.png,V2,duckFront.png,frogFront.png,HcongWN,h,-20,landoltCL.png,,,,,0,70,70,25,,,h,0,0.750406419131,,,2020_Mar_04_0810,59.961162873,duckFrog,001,8,
frog,quackL.wav,-20,landoltCL.png,V2,frogFront.png,duckFront.png,HinCong,b,20,landoltCBottom.png,,,,,0,71,71,70,,,b,0,0.750553774706,,,2020_Mar_04_0810,59.961162873,duckFrog,001,8,
frog,wnR.wav,20,landoltCTop.png,V2,duckFront.png,frogFront.png,HinCongWN,h,-20,landoltCL.png,,,,,0,72,72,43,,,h,0,1.25102058396,,,2020_Mar_04_0810,59.961162873,duckFrog,001,8,
frog,wnL.wav,20,landoltCBottom.png,V2,duckFront.png,frogFront.png,HcongWN,b,-20,landoltCR.png,,,,,0,73,73,33,,,b,0,0.767376136093,,,2020_Mar_04_0810,59.961162873,duckFrog,001,8,
frog,quackL.wav,-20,landoltCL.png,V2,frogFront.png,duckFront.png,HinCong,b,20,landoltCBottom.png,,,,,0,74,74,22,,,b,0,0.667166282685,,,2020_Mar_04_0810,59.961162873,duckFrog,001,8,
frog,ribbitR.wav,-20,landoltCL.png,V2,frogFront.png,duckFront.png,Hcong,h,20,landoltCTop.png,,,,,0,75,75,76,,,h,0,0.800810089102,,,2020_Mar_04_0810,59.961162873,duckFrog,001,8,
frog,wnL.wav,20,landoltCTop.png,V2,duckFront.png,frogFront.png,HcongWN,h,-20,landoltCL.png,,,,,0,76,76,41,,,h,0,0.517054941243,,,2020_Mar_04_0810,59.961162873,duckFrog,001,8,
frog,wnR.wav,-20,landoltCR.png,V2,frogFront.png,duckFront.png,HcongWN,b,20,landoltCBottom.png,,,,,0,77,77,21,,,b,0,0.867377785587,,,2020_Mar_04_0810,59.961162873,duckFrog,001,8,
frog,quackR.wav,20,landoltCTop.png,V2,duckFront.png,frogFront.png,HinCong,h,-20,landoltCR.png,,,,,0,78,78,58,,,h,0,0.850645963568,,,2020_Mar_04_0810,59.961162873,duckFrog,001,8,
frog,ribbitR.wav,-20,landoltCL.png,V2,frogFront.png,duckFront.png,Hcong,h,20,landoltCTop.png,,,,,0,79,79,60,,,h,0,1.0867671397,,,2020_Mar_04_0810,59.961162873,duckFrog,001,8,
frog,ribbitR.wav,-20,landoltCL.png,V2,frogFront.png,duckFront.png,Hcong,h,20,landoltCTop.png,,,,,1,0,80,76,,,h,0,1.13439854552,,,2020_Mar_04_0810,59.961162873,duckFrog,001,8,
duck,wnR.wav,20,landoltCBottom.png,V2,frogFront.png,duckFront.png,LinCongWN,b,-20,landoltCL.png,,,,,1,1,81,11,,,b,0,1.13443959979,,,2020_Mar_04_0810,59.961162873,duckFrog,001,8,
frog,wnL.wav,20,landoltCBottom.png,V2,duckFront.png,frogFront.png,HcongWN,b,-20,landoltCR.png,,,,,1,2,82,49,,,b,0,1.55163804779,,,2020_Mar_04_0810,59.961162873,duckFrog,001,8,
duck,ribbitL.wav,-20,landoltCR.png,V2,duckFront.png,frogFront.png,LinCong,b,20,landoltCBottom.png,,,,,1,3,83,14,,,b,0,1.38440120305,,,2020_Mar_04_0810,59.961162873,duckFrog,001,8,
duck,wnR.wav,-20,landoltCL.png,V2,duckFront.png,frogFront.png,LcongWN,b,20,landoltCBottom.png,,,,,1,4,84,13,,,b,0,1.06776633512,,,2020_Mar_04_0810,59.961162873,duckFrog,001,8,
frog,wnR.wav,20,landoltCTop.png,V2,duckFront.png,frogFront.png,HinCongWN,h,-20,landoltCL.png,,,,,1,5,85,75,,,h,0,1.1675773754,,,2020_Mar_04_0810,59.961162873,duckFrog,001,8,
frog,ribbitR.wav,-20,landoltCL.png,V2,frogFront.png,duckFront.png,Hcong,b,20,landoltCBottom.png,,,,,1,6,86,52,,,b,0,1.184182369,,,2020_Mar_04_0810,59.961162873,duckFrog,001,8,
frog,wnR.wav,-20,landoltCR.png,V2,frogFront.png,duckFront.png,HcongWN,b,20,landoltCBottom.png,,,,,1,7,87,37,,,b,0,0.750816228916,,,2020_Mar_04_0810,59.961162873,duckFrog,001,8,
duck,quackL.wav,20,landoltCBottom.png,V2,frogFront.png,duckFront.png,Lcong,b,-20,landoltCR.png,,,,,1,8,88,8,,,b,0,1.53453783685,,,2020_Mar_04_0810,59.961162873,duckFrog,001,8,
frog,quackR.wav,20,landoltCTop.png,V2,duckFront.png,frogFront.png,HinCong,h,-20,landoltCR.png,,,,,1,9,89,74,,,h,0,0.917627868534,,,2020_Mar_04_0810,59.961162873,duckFrog,001,8,
frog,ribbitL.wav,20,landoltCBottom.png,V2,duckFront.png,frogFront.png,Hcong,b,-20,landoltCL.png,,,,,1,10,90,16,,,b,0,0.717402436509,,,2020_Mar_04_0810,59.961162873,duckFrog,001,8,
frog,wnL.wav,20,landoltCTop.png,V2,duckFront.png,frogFront.png,HcongWN,h,-20,landoltCL.png,,,,,1,11,91,57,,,h,0,0.884254030738,,,2020_Mar_04_0810,59.961162873,duckFrog,001,8,
frog,quackR.wav,20,landoltCBottom.png,V2,duckFront.png,frogFront.png,HinCong,b,-20,landoltCL.png,,,,,1,12,92,34,,,b,0,1.1846365321,,,2020_Mar_04_0810,59.961162873,duckFrog,001,8,
frog,ribbitL.wav,20,landoltCTop.png,V2,duckFront.png,frogFront.png,Hcong,h,-20,landoltCR.png,,,,,1,13,93,56,,,h,0,0.767481704272,,,2020_Mar_04_0810,59.961162873,duckFrog,001,8,
frog,wnL.wav,-20,landoltCR.png,V2,frogFront.png,duckFront.png,HinCongWN,b,20,landoltCBottom.png,,,,,1,14,94,23,,,b,0,0.734056915186,,,2020_Mar_04_0810,59.961162873,duckFrog,001,8,
frog,quackR.wav,20,landoltCTop.png,V2,duckFront.png,frogFront.png,HinCong,h,-20,landoltCR.png,,,,,1,15,95,26,,,h,0,0.717331324617,,,2020_Mar_04_0810,59.961162873,duckFrog,001,8,
duck,wnL.wav,-20,landoltCL.png,V2,duckFront.png,frogFront.png,LinCongWN,h,20,landoltCTop.png,,,,,1,16,96,7,,,h,0,0.80060591732,,,2020_Mar_04_0810,59.961162873,duckFrog,001,8,
frog,wnL.wav,20,landoltCTop.png,V2,duckFront.png,frogFront.png,HcongWN,h,-20,landoltCL.png,,,,,1,17,97,41,,,h,0,0.86731583759,,,2020_Mar_04_0810,59.961162873,duckFrog,001,8,
duck,wnR.wav,-20,landoltCL.png,V2,duckFront.png,frogFront.png,LcongWN,h,20,landoltCTop.png,,,,,1,18,98,5,,,h,0,1.15094672289,,,2020_Mar_04_0810,59.961162873,duckFrog,001,8,
frog,wnR.wav,20,landoltCTop.png,V2,duckFront.png,frogFront.png,HinCongWN,h,-20,landoltCL.png,,,,,1,19,99,27,,,h,0,0.683831024944,,,2020_Mar_04_0810,59.961162873,duckFrog,001,8,
frog,wnR.wav,-20,landoltCR.png,V2,frogFront.png,duckFront.png,HcongWN,h,20,landoltCTop.png,,,,,1,20,100,61,,,b,0,0.917385208333,,,2020_Mar_04_0810,59.961162873,duckFrog,001,8,
duck,wnL.wav,20,landoltCTop.png,V2,frogFront.png,duckFront.png,LcongWN,h,-20,landoltCR.png,,,,,1,21,101,1,,,h,0,0.733963076811,,,2020_Mar_04_0810,59.961162873,duckFrog,001,8,
frog,quackL.wav,-20,landoltCL.png,V2,frogFront.png,duckFront.png,HinCong,b,20,landoltCBottom.png,,,,,1,22,102,38,,,b,0,1.08421737512,,,2020_Mar_04_0810,59.961162873,duckFrog,001,8,
frog,quackL.wav,-20,landoltCL.png,V2,frogFront.png,duckFront.png,HinCong,h,20,landoltCTop.png,,,,,1,23,103,30,,,h,0,0.867568394809,,,2020_Mar_04_0810,59.961162873,duckFrog,001,8,
frog,wnL.wav,20,landoltCTop.png,V2,duckFront.png,frogFront.png,HcongWN,h,-20,landoltCL.png,,,,,1,24,104,73,,,h,0,0.967404360941,,,2020_Mar_04_0810,59.961162873,duckFrog,001,8,
frog,quackL.wav,-20,landoltCL.png,V2,frogFront.png,duckFront.png,HinCong,b,20,landoltCBottom.png,,,,,1,25,105,54,,,b,0,1.10074795783,,,2020_Mar_04_0810,59.961162873,duckFrog,001,8,
frog,quackL.wav,-20,landoltCL.png,V2,frogFront.png,duckFront.png,HinCong,h,20,landoltCTop.png,,,,,1,26,106,62,,,h,0,0.984196664707,,,2020_Mar_04_0810,59.961162873,duckFrog,001,8,
frog,ribbitL.wav,20,landoltCTop.png,V2,duckFront.png,frogFront.png,Hcong,h,-20,landoltCR.png,,,,,1,27,107,72,,,h,0,0.783933110826,,,2020_Mar_04_0810,59.961162873,duckFrog,001,8,
duck,wnL.wav,-20,landoltCL.png,V2,duckFront.png,frogFront.png,LinCongWN,b,20,landoltCBottom.png,,,,,1,28,108,15,,,b,0,1.43462012868,,,2020_Mar_04_0810,59.961162873,duckFrog,001,8,
frog,wnL.wav,-20,landoltCR.png,V2,frogFront.png,duckFront.png,HinCongWN,b,20,landoltCBottom.png,,,,,1,29,109,55,,,b,0,0.934305806819,,,2020_Mar_04_0810,59.961162873,duckFrog,001,8,
frog,wnR.wav,20,landoltCTop.png,V2,duckFront.png,frogFront.png,HinCongWN,h,-20,landoltCL.png,,,,,1,30,110,59,,,h,0,0.800553499808,,,2020_Mar_04_0810,59.961162873,duckFrog,001,8,
duck,wnR.wav,20,landoltCTop.png,V2,frogFront.png,duckFront.png,LinCongWN,h,-20,landoltCR.png,,,,,1,31,111,3,,,h,0,0.917749931716,,,2020_Mar_04_0810,59.961162873,duckFrog,001,8,
duck,ribbitR.wav,20,landoltCTop.png,V2,frogFront.png,duckFront.png,LinCong,h,-20,landoltCL.png,,,,,1,32,112,2,,,h,0,1.00095781122,,,2020_Mar_04_0810,59.961162873,duckFrog,001,8,
frog,wnR.wav,-20,landoltCR.png,V2,frogFront.png,duckFront.png,HcongWN,b,20,landoltCBottom.png,,,,,1,33,113,69,,,b,0,0.847634704813,,,2020_Mar_04_0810,59.961162873,duckFrog,001,8,
frog,ribbitR.wav,-20,landoltCL.png,V2,frogFront.png,duckFront.png,Hcong,h,20,landoltCTop.png,,,,,1,34,114,60,,,h,0,2.55223919987,,,2020_Mar_04_0810,59.961162873,duckFrog,001,8,
duck,ribbitR.wav,20,landoltCBottom.png,V2,frogFront.png,duckFront.png,LinCong,b,-20,landoltCR.png,,,,,1,35,115,10,,,b,0,1.26761714678,,,2020_Mar_04_0810,59.961162873,duckFrog,001,8,
duck,quackL.wav,20,landoltCTop.png,V2,frogFront.png,duckFront.png,Lcong,h,-20,landoltCL.png,,,,,1,36,116,0,,,h,0,1.45140436827,,,2020_Mar_04_0810,59.961162873,duckFrog,001,8,
frog,ribbitR.wav,-20,landoltCL.png,V2,frogFront.png,duckFront.png,Hcong,h,20,landoltCTop.png,,,,,1,37,117,28,,,h,0,0.933994600637,,,2020_Mar_04_0810,59.961162873,duckFrog,001,8,
duck,wnL.wav,20,landoltCBottom.png,V2,frogFront.png,duckFront.png,LcongWN,b,-20,landoltCL.png,,,,,1,38,118,9,,,b,0,0.850845736684,,,2020_Mar_04_0810,59.961162873,duckFrog,001,8,
frog,ribbitL.wav,20,landoltCTop.png,V2,duckFront.png,frogFront.png,Hcong,h,-20,landoltCR.png,,,,,1,39,119,40,,,h,0,0.834203720908,,,2020_Mar_04_0810,59.961162873,duckFrog,001,8,
frog,wnR.wav,20,landoltCBottom.png,V2,duckFront.png,frogFront.png,HinCongWN,b,-20,landoltCR.png,,,,,1,40,120,51,,,b,0,1.45136441363,,,2020_Mar_04_0810,59.961162873,duckFrog,001,8,
duck,ribbitL.wav,-20,landoltCR.png,V2,duckFront.png,frogFront.png,LinCong,h,20,landoltCTop.png,,,,,1,41,121,6,,,h,0,1.38443016098,,,2020_Mar_04_0810,59.961162873,duckFrog,001,8,
frog,wnL.wav,-20,landoltCR.png,V2,frogFront.png,duckFront.png,HinCongWN,h,20,landoltCTop.png,,,,,1,42,122,79,,,h,0,1.31814507925,,,2020_Mar_04_0810,59.961162873,duckFrog,001,8,
frog,quackR.wav,20,landoltCBottom.png,V2,duckFront.png,frogFront.png,HinCong,b,-20,landoltCL.png,,,,,1,43,123,50,,,b,0,1.06766809808,,,2020_Mar_04_0810,59.961162873,duckFrog,001,8,
frog,wnR.wav,20,landoltCBottom.png,V2,duckFront.png,frogFront.png,HinCongWN,b,-20,landoltCR.png,,,,,1,44,124,35,,,b,0,1.15108858014,,,2020_Mar_04_0810,59.961162873,duckFrog,001,8,
frog,wnL.wav,-20,landoltCR.png,V2,frogFront.png,duckFront.png,HinCongWN,b,20,landoltCBottom.png,,,,,1,45,125,39,,,b,0,1.45113861506,,,2020_Mar_04_0810,59.961162873,duckFrog,001,8,
frog,ribbitR.wav,-20,landoltCL.png,V2,frogFront.png,duckFront.png,Hcong,h,20,landoltCTop.png,,,,,1,46,126,44,,,h,0,0.767522758542,,,2020_Mar_04_0810,59.961162873,duckFrog,001,8,
duck,quackR.wav,-20,landoltCR.png,V2,duckFront.png,frogFront.png,Lcong,b,20,landoltCBottom.png,,,,,1,47,127,12,,,b,0,0.934313137928,,,2020_Mar_04_0810,59.961162873,duckFrog,001,8,
frog,quackL.wav,-20,landoltCL.png,V2,frogFront.png,duckFront.png,HinCong,b,20,landoltCBottom.png,,,,,1,48,128,70,,,b,0,1.23450209762,,,2020_Mar_04_0810,59.961162873,duckFrog,001,8,
frog,quackL.wav,-20,landoltCL.png,V2,frogFront.png,duckFront.png,HinCong,h,20,landoltCTop.png,,,,,1,49,129,78,,,h,0,1.30130219072,,,2020_Mar_04_0810,59.961162873,duckFrog,001,8,
duck,quackR.wav,-20,landoltCR.png,V2,duckFront.png,frogFront.png,Lcong,h,20,landoltCTop.png,,,,,1,50,130,4,,,h,0,1.40132180147,,,2020_Mar_04_0810,59.961162873,duckFrog,001,8,
frog,wnR.wav,-20,landoltCR.png,V2,frogFront.png,duckFront.png,HcongWN,h,20,landoltCTop.png,,,,,1,51,131,29,,,h,0,0.700685643271,,,2020_Mar_04_0810,59.961162873,duckFrog,001,8,
frog,quackL.wav,-20,landoltCL.png,V2,frogFront.png,duckFront.png,HinCong,h,20,landoltCTop.png,,,,,1,52,132,46,,,h,0,0.617372195615,,,2020_Mar_04_0810,59.961162873,duckFrog,001,8,
frog,quackR.wav,20,landoltCTop.png,V2,duckFront.png,frogFront.png,HinCong,h,-20,landoltCR.png,,,,,1,53,133,58,,,b,0,1.06748225412,,,2020_Mar_04_0810,59.961162873,duckFrog,001,8,
frog,wnL.wav,20,landoltCTop.png,V2,duckFront.png,frogFront.png,HcongWN,h,-20,landoltCL.png,,,,,1,54,134,25,,,h,0,0.800868738064,,,2020_Mar_04_0810,59.961162873,duckFrog,001,8,
frog,wnR.wav,-20,landoltCR.png,V2,frogFront.png,duckFront.png,HcongWN,h,20,landoltCTop.png,,,,,1,55,135,45,,,h,0,0.717185801826,,,2020_Mar_04_0810,59.961162873,duckFrog,001,8,
frog,wnR.wav,20,landoltCBottom.png,V2,duckFront.png,frogFront.png,HinCongWN,b,-20,landoltCR.png,,,,,1,56,136,67,,,b,0,0.900512262218,,,2020_Mar_04_0810,59.961162873,duckFrog,001,8,
frog,quackR.wav,20,landoltCBottom.png,V2,duckFront.png,frogFront.png,HinCong,b,-20,landoltCL.png,,,,,1,57,137,18,,,b,0,0.734147821116,,,2020_Mar_04_0810,59.961162873,duckFrog,001,8,
frog,wnR.wav,20,landoltCTop.png,V2,duckFront.png,frogFront.png,HinCongWN,h,-20,landoltCL.png,,,,,1,58,138,43,,,h,0,1.20111323101,,,2020_Mar_04_0810,59.961162873,duckFrog,001,8,
frog,ribbitR.wav,-20,landoltCL.png,V2,frogFront.png,duckFront.png,Hcong,b,20,landoltCBottom.png,,,,,1,59,139,20,,,b,0,0.850651095359,,,2020_Mar_04_0810,59.961162873,duckFrog,001,8,
frog,quackR.wav,20,landoltCTop.png,V2,duckFront.png,frogFront.png,HinCong,h,-20,landoltCR.png,,,,,1,60,140,42,,,h,0,1.43437270331,,,2020_Mar_04_0810,59.961162873,duckFrog,001,8,
frog,wnL.wav,-20,landoltCR.png,V2,frogFront.png,duckFront.png,HinCongWN,h,20,landoltCTop.png,,,,,1,61,141,47,,,h,0,1.28427859003,,,2020_Mar_04_0810,59.961162873,duckFrog,001,8,
frog,wnL.wav,-20,landoltCR.png,V2,frogFront.png,duckFront.png,HinCongWN,h,20,landoltCTop.png,,,,,1,62,142,63,,,h,0,1.13421819988,,,2020_Mar_04_0810,59.961162873,duckFrog,001,8,
frog,wnR.wav,-20,landoltCR.png,V2,frogFront.png,duckFront.png,HcongWN,b,20,landoltCBottom.png,,,,,1,63,143,21,,,b,0,0.634125644458,,,2020_Mar_04_0810,59.961162873,duckFrog,001,8,
frog,ribbitL.wav,20,landoltCBottom.png,V2,duckFront.png,frogFront.png,Hcong,b,-20,landoltCL.png,,,,,1,64,144,32,,,b,0,1.23443904996,,,2020_Mar_04_0810,59.961162873,duckFrog,001,8,
frog,wnR.wav,-20,landoltCR.png,V2,frogFront.png,duckFront.png,HcongWN,b,20,landoltCBottom.png,,,,,1,65,145,53,,,b,0,0.800541036879,,,2020_Mar_04_0810,59.961162873,duckFrog,001,8,
frog,ribbitR.wav,-20,landoltCL.png,V2,frogFront.png,duckFront.png,Hcong,b,20,landoltCBottom.png,,,,,1,66,146,36,,,b,0,0.46725682207,,,2020_Mar_04_0810,59.961162873,duckFrog,001,8,
frog,ribbitL.wav,20,landoltCBottom.png,V2,duckFront.png,frogFront.png,Hcong,b,-20,landoltCL.png,,,,,1,67,147,48,,,b,0,0.700512262207,,,2020_Mar_04_0810,59.961162873,duckFrog,001,8,
frog,wnL.wav,-20,landoltCR.png,V2,frogFront.png,duckFront.png,HinCongWN,b,20,landoltCBottom.png,,,,,1,68,148,71,,,b,0,1.1342438588,,,2020_Mar_04_0810,59.961162873,duckFrog,001,8,
frog,wnL.wav,20,landoltCBottom.png,V2,duckFront.png,frogFront.png,HcongWN,b,-20,landoltCR.png,,,,,1,69,149,33,,,b,0,0.600502181915,,,2020_Mar_04_0810,59.961162873,duckFrog,001,8,
frog,wnR.wav,20,landoltCBottom.png,V2,duckFront.png,frogFront.png,HinCongWN,b,-20,landoltCR.png,,,,,1,70,150,19,,,b,0,0.550554874382,,,2020_Mar_04_0810,59.961162873,duckFrog,001,8,
frog,ribbitL.wav,20,landoltCBottom.png,V2,duckFront.png,frogFront.png,Hcong,b,-20,landoltCL.png,,,,,1,71,151,64,,,b,0,0.367143006384,,,2020_Mar_04_0810,59.961162873,duckFrog,001,8,
frog,wnL.wav,20,landoltCBottom.png,V2,duckFront.png,frogFront.png,HcongWN,b,-20,landoltCR.png,,,,,1,72,152,65,,,b,0,0.550662641879,,,2020_Mar_04_0810,59.961162873,duckFrog,001,8,
frog,wnL.wav,20,landoltCBottom.png,V2,duckFront.png,frogFront.png,HcongWN,b,-20,landoltCR.png,,,,,1,73,153,17,,,b,0,0.584000923729,,,2020_Mar_04_0810,59.961162873,duckFrog,001,8,
frog,ribbitL.wav,20,landoltCTop.png,V2,duckFront.png,frogFront.png,Hcong,h,-20,landoltCR.png,,,,,1,74,154,24,,,h,0,0.850910250563,,,2020_Mar_04_0810,59.961162873,duckFrog,001,8,
frog,ribbitR.wav,-20,landoltCL.png,V2,frogFront.png,duckFront.png,Hcong,b,20,landoltCBottom.png,,,,,1,75,155,68,,,h,0,0.934001931775,,,2020_Mar_04_0810,59.961162873,duckFrog,001,8,
frog,wnR.wav,-20,landoltCR.png,V2,frogFront.png,duckFront.png,HcongWN,h,20,landoltCTop.png,,,,,1,76,156,77,,,h,0,1.03440459367,,,2020_Mar_04_0810,59.961162873,duckFrog,001,8,
frog,quackR.wav,20,landoltCBottom.png,V2,duckFront.png,frogFront.png,HinCong,b,-20,landoltCL.png,,,,,1,77,157,66,,,b,0,0.884050225519,,,2020_Mar_04_0810,59.961162873,duckFrog,001,8,
frog,quackL.wav,-20,landoltCL.png,V2,frogFront.png,duckFront.png,HinCong,b,20,landoltCBottom.png,,,,,1,78,158,22,,,h,0,0.950674371677,,,2020_Mar_04_0810,59.961162873,duckFrog,001,8,
frog,wnL.wav,-20,landoltCR.png,V2,frogFront.png,duckFront.png,HinCongWN,h,20,landoltCTop.png,,,,,1,79,159,31,,,h,0,1.36797069016,,,2020_Mar_04_0810,59.961162873,duckFrog,001,8,
duck,wnR.wav,20,landoltCTop.png,V2,frogFront.png,duckFront.png,LinCongWN,h,-20,landoltCR.png,,,,,2,0,160,3,,,h,0,1.43441998906,,,2020_Mar_04_0810,59.961162873,duckFrog,001,8,
frog,ribbitR.wav,-20,landoltCL.png,V2,frogFront.png,duckFront.png,Hcong,h,20,landoltCTop.png,,,,,2,1,161,76,,,h,0,1.03395922796,,,2020_Mar_04_0810,59.961162873,duckFrog,001,8,
frog,ribbitL.wav,20,landoltCTop.png,V2,duckFront.png,frogFront.png,Hcong,h,-20,landoltCR.png,,,,,2,2,162,24,,,h,0,1.067690458,,,2020_Mar_04_0810,59.961162873,duckFrog,001,8,
duck,ribbitR.wav,20,landoltCBottom.png,V2,frogFront.png,duckFront.png,LinCong,b,-20,landoltCR.png,,,,,2,3,163,10,,,b,0,1.68487424377,,,2020_Mar_04_0810,59.961162873,duckFrog,001,8,
duck,wnR.wav,-20,landoltCL.png,V2,duckFront.png,frogFront.png,LcongWN,b,20,landoltCBottom.png,,,,,2,4,164,13,,,b,0,1.13426328628,,,2020_Mar_04_0810,59.961162873,duckFrog,001,8,
frog,wnL.wav,20,landoltCBottom.png,V2,duckFront.png,frogFront.png,HcongWN,b,-20,landoltCR.png,,,,,2,5,165,17,,,b,0,0.600427771016,,,2020_Mar_04_0810,59.961162873,duckFrog,001,8,
duck,quackL.wav,20,landoltCTop.png,V2,frogFront.png,duckFront.png,Lcong,h,-20,landoltCL.png,,,,,2,6,166,0,,,h,0,0.867571327253,,,2020_Mar_04_0810,59.961162873,duckFrog,001,8,
duck,quackR.wav,-20,landoltCR.png,V2,duckFront.png,frogFront.png,Lcong,b,20,landoltCBottom.png,,,,,2,7,167,12,,,b,0,1.21758406507,,,2020_Mar_04_0810,59.961162873,duckFrog,001,8,
frog,wnL.wav,20,landoltCBottom.png,V2,duckFront.png,frogFront.png,HcongWN,b,-20,landoltCR.png,,,,,2,8,168,33,,,b,0,0.517028182658,,,2020_Mar_04_0810,59.961162873,duckFrog,001,8,
frog,quackR.wav,20,landoltCBottom.png,V2,duckFront.png,frogFront.png,HinCong,b,-20,landoltCL.png,,,,,2,9,169,18,,,b,0,0.634061863675,,,2020_Mar_04_0810,59.961162873,duckFrog,001,8,
frog,wnL.wav,-20,landoltCR.png,V2,frogFront.png,duckFront.png,HinCongWN,b,20,landoltCBottom.png,,,,,2,10,170,23,,,b,0,1.38440560171,,,2020_Mar_04_0810,59.961162873,duckFrog,001,8,
frog,quackR.wav,20,landoltCTop.png,V2,duckFront.png,frogFront.png,HinCong,h,-20,landoltCR.png,,,,,2,11,171,74,,,h,0,0.933971141028,,,2020_Mar_04_0810,59.961162873,duckFrog,001,8,
frog,ribbitR.wav,-20,landoltCL.png,V2,frogFront.png,duckFront.png,Hcong,h,20,landoltCTop.png,,,,,2,12,172,28,,,h,0,1.58449834041,,,2020_Mar_04_0810,59.961162873,duckFrog,001,8,
frog,wnR.wav,20,landoltCBottom.png,V2,duckFront.png,frogFront.png,HinCongWN,b,-20,landoltCR.png,,,,,2,13,173,51,,,b,0,0.700535355281,,,2020_Mar_04_0810,59.961162873,duckFrog,001,8,
frog,quackL.wav,-20,landoltCL.png,V2,frogFront.png,duckFront.png,HinCong,h,20,landoltCTop.png,,,,,2,14,174,62,,,h,0,1.48442191345,,,2020_Mar_04_0810,59.961162873,duckFrog,001,8,
frog,ribbitL.wav,20,landoltCBottom.png,V2,duckFront.png,frogFront.png,Hcong,b,-20,landoltCL.png,,,,,2,15,175,16,,,h,0,0.800621679227,,,2020_Mar_04_0810,59.961162873,duckFrog,001,8,
frog,ribbitL.wav,20,landoltCBottom.png,V2,duckFront.png,frogFront.png,Hcong,b,-20,landoltCL.png,,,,,2,16,176,48,,,b,0,0.68412280365,,,2020_Mar_04_0810,59.961162873,duckFrog,001,8,
frog,quackL.wav,-20,landoltCL.png,V2,frogFront.png,duckFront.png,HinCong,h,20,landoltCTop.png,,,,,2,17,177,46,,,h,0,1.40511235863,,,2020_Mar_04_0810,59.961162873,duckFrog,001,8,
frog,quackL.wav,-20,landoltCL.png,V2,frogFront.png,duckFront.png,HinCong,h,20,landoltCTop.png,,,,,2,18,178,30,,,h,0,1.26787410263,,,2020_Mar_04_0810,59.961162873,duckFrog,001,8,
frog,wnR.wav,-20,landoltCR.png,V2,frogFront.png,duckFront.png,HcongWN,h,20,landoltCTop.png,,,,,2,19,179,29,,,h,0,0.583971965796,,,2020_Mar_04_0810,59.961162873,duckFrog,001,8,
frog,wnR.wav,-20,landoltCR.png,V2,frogFront.png,duckFront.png,HcongWN,b,20,landoltCBottom.png,,,,,2,20,180,53,,,b,0,0.817557673028,,,2020_Mar_04_0810,59.961162873,duckFrog,001,8,
frog,wnL.wav,-20,landoltCR.png,V2,frogFront.png,duckFront.png,HinCongWN,h,20,landoltCTop.png,,,,,2,21,181,79,,,h,0,1.2200179979,,,2020_Mar_04_0810,59.961162873,duckFrog,001,8,
frog,wnR.wav,-20,landoltCR.png,V2,frogFront.png,duckFront.png,HcongWN,b,20,landoltCBottom.png,,,,,2,22,182,21,,,b,0,0.800807523221,,,2020_Mar_04_0810,59.961162873,duckFrog,001,8,
duck,ribbitL.wav,-20,landoltCR.png,V2,duckFront.png,frogFront.png,LinCong,h,20,landoltCTop.png,,,,,2,23,183,6,,,h,0,1.58501298525,,,2020_Mar_04_0810,59.961162873,duckFrog,001,8,
frog,quackR.wav,20,landoltCBottom.png,V2,duckFront.png,frogFront.png,HinCong,b,-20,landoltCL.png,,,,,2,24,184,66,,,b,0,1.20091785659,,,2020_Mar_04_0810,59.961162873,duckFrog,001,8,
frog,quackL.wav,-20,landoltCL.png,V2,frogFront.png,duckFront.png,HinCong,b,20,landoltCBottom.png,,,,,2,25,185,38,,,b,0,1.18425238127,,,2020_Mar_04_0810,59.961162873,duckFrog,001,8,
duck,wnL.wav,-20,landoltCL.png,V2,duckFront.png,frogFront.png,LinCongWN,b,20,landoltCBottom.png,,,,,2,26,186,15,,,b,0,0.951111673174,,,2020_Mar_04_0810,59.961162873,duckFrog,001,8,
frog,quackR.wav,20,landoltCTop.png,V2,duckFront.png,frogFront.png,HinCong,h,-20,landoltCR.png,,,,,2,27,187,42,,,h,0,1.33439268058,,,2020_Mar_04_0810,59.961162873,duckFrog,001,8,
frog,wnL.wav,20,landoltCBottom.png,V2,duckFront.png,frogFront.png,HcongWN,b,-20,landoltCR.png,,,,,2,28,188,49,,,b,0,0.6342689679,,,2020_Mar_04_0810,59.961162873,duckFrog,001,8,
duck,quackR.wav,-20,landoltCR.png,V2,duckFront.png,frogFront.png,Lcong,h,20,landoltCTop.png,,,,,2,29,189,4,,,h,0,0.783955837309,,,2020_Mar_04_0810,59.961162873,duckFrog,001,8,
frog,wnR.wav,-20,landoltCR.png,V2,frogFront.png,duckFront.png,HcongWN,h,20,landoltCTop.png,,,,,2,30,190,61,,,h,0,0.734341362753,,,2020_Mar_04_0810,59.961162873,duckFrog,001,8,
frog,quackL.wav,-20,landoltCL.png,V2,frogFront.png,duckFront.png,HinCong,h,20,landoltCTop.png,,,,,2,31,191,78,,,h,0,1.15114173078,,,2020_Mar_04_0810,59.961162873,duckFrog,001,8,
frog,wnL.wav,-20,landoltCR.png,V2,frogFront.png,duckFront.png,HinCongWN,b,20,landoltCBottom.png,,,,,2,32,192,55,,,b,0,1.2178974706,,,2020_Mar_04_0810,59.961162873,duckFrog,001,8,
frog,wnR.wav,20,landoltCTop.png,V2,duckFront.png,frogFront.png,HinCongWN,h,-20,landoltCL.png,,,,,2,33,193,27,,,h,0,0.517280006752,,,2020_Mar_04_0810,59.961162873,duckFrog,001,8,
frog,wnL.wav,20,landoltCTop.png,V2,duckFront.png,frogFront.png,HcongWN,h,-20,landoltCL.png,,,,,2,34,194,57,,,h,0,0.850961568416,,,2020_Mar_04_0810,59.961162873,duckFrog,001,8,
frog,ribbitL.wav,20,landoltCBottom.png,V2,duckFront.png,frogFront.png,Hcong,b,-20,landoltCL.png,,,,,2,35,195,32,,,b,0,0.700795976678,,,2020_Mar_04_0810,59.961162873,duckFrog,001,8,
frog,wnL.wav,20,landoltCTop.png,V2,duckFront.png,frogFront.png,HcongWN,h,-20,landoltCL.png,,,,,2,36,196,41,,,h,0,1.25121082659,,,2020_Mar_04_0810,59.961162873,duckFrog,001,8,
duck,wnL.wav,20,landoltCTop.png,V2,frogFront.png,duckFront.png,LcongWN,h,-20,landoltCR.png,,,,,2,37,197,1,,,h,0,0.717426629213,,,2020_Mar_04_0810,59.961162873,duckFrog,001,8,
duck,wnL.wav,-20,landoltCL.png,V2,duckFront.png,frogFront.png,LinCongWN,h,20,landoltCTop.png,,,,,2,38,198,7,,,h,0,1.31766672348,,,2020_Mar_04_0810,59.961162873,duckFrog,001,8,
duck,ribbitL.wav,-20,landoltCR.png,V2,duckFront.png,frogFront.png,LinCong,b,20,landoltCBottom.png,,,,,2,39,199,14,,,b,0,1.1511549268,,,2020_Mar_04_0810,59.961162873,duckFrog,001,8,
frog,wnR.wav,-20,landoltCR.png,V2,frogFront.png,duckFront.png,HcongWN,h,20,landoltCTop.png,,,,,2,40,200,77,,,h,0,0.550638815737,,,2020_Mar_04_0810,59.961162873,duckFrog,001,8,
frog,wnL.wav,20,landoltCBottom.png,V2,duckFront.png,frogFront.png,HcongWN,b,-20,landoltCR.png,,,,,2,41,201,65,,,b,0,1.16753302212,,,2020_Mar_04_0810,59.961162873,duckFrog,001,8,
duck,wnL.wav,20,landoltCBottom.png,V2,frogFront.png,duckFront.png,LcongWN,b,-20,landoltCL.png,,,,,2,42,202,9,,,b,0,0.917574351333,,,2020_Mar_04_0810,59.961162873,duckFrog,001,8,
frog,ribbitL.wav,20,landoltCTop.png,V2,duckFront.png,frogFront.png,Hcong,h,-20,landoltCR.png,,,,,2,43,203,72,,,h,0,0.984305898426,,,2020_Mar_04_0810,59.961162873,duckFrog,001,8,
frog,ribbitL.wav,20,landoltCTop.png,V2,duckFront.png,frogFront.png,Hcong,h,-20,landoltCR.png,,,,,2,44,204,56,,,h,0,0.850877260498,,,2020_Mar_04_0810,59.961162873,duckFrog,001,8,
frog,quackR.wav,20,landoltCBottom.png,V2,duckFront.png,frogFront.png,HinCong,b,-20,landoltCL.png,,,,,2,45,205,50,,,b,0,0.867537604092,,,2020_Mar_04_0810,59.961162873,duckFrog,001,8,
frog,wnL.wav,20,landoltCTop.png,V2,duckFront.png,frogFront.png,HcongWN,h,-20,landoltCL.png,,,,,2,46,206,73,,,h,0,1.11773233704,,,2020_Mar_04_0810,59.961162873,duckFrog,001,8,
frog,wnL.wav,-20,landoltCR.png,V2,frogFront.png,duckFront.png,HinCongWN,h,20,landoltCTop.png,,,,,2,47,207,31,,,h,0,0.75055304158,,,2020_Mar_04_0810,59.961162873,duckFrog,001,8,
frog,wnR.wav,20,landoltCBottom.png,V2,duckFront.png,frogFront.png,HinCongWN,b,-20,landoltCR.png,,,,,2,48,208,35,,,b,0,1.4177391183,,,2020_Mar_04_0810,59.961162873,duckFrog,001,8,
frog,wnR.wav,-20,landoltCR.png,V2,frogFront.png,duckFront.png,HcongWN,b,20,landoltCBottom.png,,,,,2,49,209,69,,,b,0,1.76806672788,,,2020_Mar_04_0810,59.961162873,duckFrog,001,8,
duck,ribbitR.wav,20,landoltCTop.png,V2,frogFront.png,duckFront.png,LinCong,h,-20,landoltCL.png,,,,,2,50,210,2,,,h,0,1.31774846552,,,2020_Mar_04_0810,59.961162873,duckFrog,001,8,
frog,wnR.wav,-20,landoltCR.png,V2,frogFront.png,duckFront.png,HcongWN,b,20,landoltCBottom.png,,,,,2,51,211,37,,,b,0,0.967408759607,,,2020_Mar_04_0810,59.961162873,duckFrog,001,8,
duck,wnR.wav,-20,landoltCL.png,V2,duckFront.png,frogFront.png,LcongWN,h,20,landoltCTop.png,,,,,2,52,212,5,,,h,0,0.817725189205,,,2020_Mar_04_0810,59.961162873,duckFrog,001,8,
frog,quackR.wav,20,landoltCTop.png,V2,duckFront.png,frogFront.png,HinCong,h,-20,landoltCR.png,,,,,2,53,213,58,,,h,0,0.750557440275,,,2020_Mar_04_0810,59.961162873,duckFrog,001,8,
frog,quackR.wav,20,landoltCTop.png,V2,duckFront.png,frogFront.png,HinCong,h,-20,landoltCR.png,,,,,2,54,214,26,,,h,0,0.850891189621,,,2020_Mar_04_0810,59.961162873,duckFrog,001,8,
frog,wnL.wav,-20,landoltCR.png,V2,frogFront.png,duckFront.png,HinCongWN,b,20,landoltCBottom.png,,,,,2,55,215,39,,,b,0,1.3008560919,,,2020_Mar_04_0810,59.961162873,duckFrog,001,8,
frog,wnL.wav,-20,landoltCR.png,V2,frogFront.png,duckFront.png,HinCongWN,b,20,landoltCBottom.png,,,,,2,56,216,71,,,b,0,1.11778402145,,,2020_Mar_04_0810,59.961162873,duckFrog,001,8,
frog,ribbitR.wav,-20,landoltCL.png,V2,frogFront.png,duckFront.png,Hcong,b,20,landoltCBottom.png,,,,,2,57,217,52,,,b,0,0.667404177657,,,2020_Mar_04_0810,59.961162873,duckFrog,001,8,
frog,quackR.wav,20,landoltCBottom.png,V2,duckFront.png,frogFront.png,HinCong,b,-20,landoltCL.png,,,,,2,58,218,34,,,b,0,1.33439231405,,,2020_Mar_04_0810,59.961162873,duckFrog,001,8,
frog,ribbitR.wav,-20,landoltCL.png,V2,frogFront.png,duckFront.png,Hcong,b,20,landoltCBottom.png,,,,,2,59,219,36,,,b,0,0.850642664562,,,2020_Mar_04_0810,59.961162873,duckFrog,001,8,
frog,wnL.wav,20,landoltCTop.png,V2,duckFront.png,frogFront.png,HcongWN,h,-20,landoltCL.png,,,,,2,60,220,25,,,h,0,0.817357533379,,,2020_Mar_04_0810,59.961162873,duckFrog,001,8,
duck,quackL.wav,20,landoltCBottom.png,V2,frogFront.png,duckFront.png,Lcong,b,-20,landoltCR.png,,,,,2,61,221,8,,,b,0,1.16796702461,,,2020_Mar_04_0810,59.961162873,duckFrog,001,8,
frog,wnR.wav,20,landoltCTop.png,V2,duckFront.png,frogFront.png,HinCongWN,h,-20,landoltCL.png,,,,,2,62,222,59,,,b,0,1.06773627753,,,2020_Mar_04_0810,59.961162873,duckFrog,001,8,
duck,wnR.wav,20,landoltCBottom.png,V2,frogFront.png,duckFront.png,LinCongWN,b,-20,landoltCL.png,,,,,2,63,223,11,,,b,0,1.61809907647,,,2020_Mar_04_0810,59.961162873,duckFrog,001,8,
frog,wnR.wav,-20,landoltCR.png,V2,frogFront.png,duckFront.png,HcongWN,h,20,landoltCTop.png,,,,,2,64,224,45,,,h,0,0.63378401412,,,2020_Mar_04_0810,59.961162873,duckFrog,001,8,
frog,ribbitR.wav,-20,landoltCL.png,V2,frogFront.png,duckFront.png,Hcong,b,20,landoltCBottom.png,,,,,2,65,225,20,,,b,0,0.834078725253,,,2020_Mar_04_0810,59.961162873,duckFrog,001,8,
frog,ribbitL.wav,20,landoltCBottom.png,V2,duckFront.png,frogFront.png,Hcong,b,-20,landoltCL.png,,,,,2,66,226,64,,,b,0,0.767231346399,,,2020_Mar_04_0810,59.961162873,duckFrog,001,8,
frog,wnR.wav,20,landoltCTop.png,V2,duckFront.png,frogFront.png,HinCongWN,h,-20,landoltCL.png,,,,,2,67,227,75,,,h,0,1.4513603815,,,2020_Mar_04_0810,59.961162873,duckFrog,001,8,
frog,ribbitR.wav,-20,landoltCL.png,V2,frogFront.png,duckFront.png,Hcong,h,20,landoltCTop.png,,,,,2,68,228,60,,,h,0,0.984048576007,,,2020_Mar_04_0810,59.961162873,duckFrog,001,8,
frog,wnL.wav,-20,landoltCR.png,V2,frogFront.png,duckFront.png,HinCongWN,h,20,landoltCTop.png,,,,,2,69,229,47,,,h,0,1.40133609719,,,2020_Mar_04_0810,59.961162873,duckFrog,001,8,
frog,wnL.wav,-20,landoltCR.png,V2,frogFront.png,duckFront.png,HinCongWN,h,20,landoltCTop.png,,,,,2,70,230,63,,,b,0,1.01771126006,,,2020_Mar_04_0810,59.961162873,duckFrog,001,8,
frog,quackL.wav,-20,landoltCL.png,V2,frogFront.png,duckFront.png,HinCong,b,20,landoltCBottom.png,,,,,2,71,231,54,,,b,0,1.36788308324,,,2020_Mar_04_0810,59.961162873,duckFrog,001,8,
frog,wnR.wav,20,landoltCTop.png,V2,duckFront.png,frogFront.png,HinCongWN,h,-20,landoltCL.png,,,,,2,72,232,43,,,h,0,1.33433146574,,,2020_Mar_04_0810,59.961162873,duckFrog,001,8,
frog,quackL.wav,-20,landoltCL.png,V2,frogFront.png,duckFront.png,HinCong,b,20,landoltCBottom.png,,,,,2,73,233,70,,,b,0,1.15087817691,,,2020_Mar_04_0810,59.961162873,duckFrog,001,8,
frog,quackL.wav,-20,landoltCL.png,V2,frogFront.png,duckFront.png,HinCong,b,20,landoltCBottom.png,,,,,2,74,234,22,,,b,0,0.850881292601,,,2020_Mar_04_0810,59.961162873,duckFrog,001,8,
frog,wnR.wav,20,landoltCBottom.png,V2,duckFront.png,frogFront.png,HinCongWN,b,-20,landoltCR.png,,,,,2,75,235,67,,,b,0,0.734033089015,,,2020_Mar_04_0810,59.961162873,duckFrog,001,8,
frog,ribbitL.wav,20,landoltCTop.png,V2,duckFront.png,frogFront.png,Hcong,h,-20,landoltCR.png,,,,,2,76,236,40,,,h,0,1.28451135315,,,2020_Mar_04_0810,59.961162873,duckFrog,001,8,
frog,ribbitR.wav,-20,landoltCL.png,V2,frogFront.png,duckFront.png,Hcong,b,20,landoltCBottom.png,,,,,2,77,237,68,,,b,0,0.783972332341,,,2020_Mar_04_0810,59.961162873,duckFrog,001,8,
frog,wnR.wav,20,landoltCBottom.png,V2,duckFront.png,frogFront.png,HinCongWN,b,-20,landoltCR.png,,,,,2,78,238,19,,,b,0,0.783594779525,,,2020_Mar_04_0810,59.961162873,duckFrog,001,8,
frog,ribbitR.wav,-20,landoltCL.png,V2,frogFront.png,duckFront.png,Hcong,h,20,landoltCTop.png,,,,,2,79,239,44,,,b,0,1.10088834882,,,2020_Mar_04_0810,59.961162873,duckFrog,001,8,
frog,quackR.wav,20,landoltCTop.png,V2,duckFront.png,frogFront.png,HinCong,h,-20,landoltCR.png,,,,,3,0,240,26,,,h,0,1.43444308208,,,2020_Mar_04_0810,59.961162873,duckFrog,001,8,
duck,wnR.wav,-20,landoltCL.png,V2,duckFront.png,frogFront.png,LcongWN,h,20,landoltCTop.png,,,,,3,1,241,5,,,h,0,0.867429103469,,,2020_Mar_04_0810,59.961162873,duckFrog,001,8,
frog,ribbitL.wav,20,landoltCBottom.png,V2,duckFront.png,frogFront.png,Hcong,b,-20,landoltCL.png,,,,,3,2,242,16,,,b,0,0.934025024762,,,2020_Mar_04_0810,59.961162873,duckFrog,001,8,
frog,wnL.wav,-20,landoltCR.png,V2,frogFront.png,duckFront.png,HinCongWN,h,20,landoltCTop.png,,,,,3,3,243,63,,,h,0,0.800537737872,,,2020_Mar_04_0810,59.961162873,duckFrog,001,8,
frog,wnR.wav,20,landoltCTop.png,V2,duckFront.png,frogFront.png,HinCongWN,h,-20,landoltCL.png,,,,,3,4,244,59,,,h,0,0.750583099201,,,2020_Mar_04_0810,59.961162873,duckFrog,001,8,
frog,wnR.wav,20,landoltCTop.png,V2,duckFront.png,frogFront.png,HinCongWN,h,-20,landoltCL.png,,,,,3,5,245,43,,,h,0,1.51794787205,,,2020_Mar_04_0810,59.961162873,duckFrog,001,8,
frog,ribbitL.wav,20,landoltCBottom.png,V2,duckFront.png,frogFront.png,Hcong,b,-20,landoltCL.png,,,,,3,6,246,64,,,b,0,1.16778521275,,,2020_Mar_04_0810,59.961162873,duckFrog,001,8,
frog,wnR.wav,-20,landoltCR.png,V2,frogFront.png,duckFront.png,HcongWN,b,20,landoltCBottom.png,,,,,3,7,247,21,,,b,0,0.684004406008,,,2020_Mar_04_0810,59.961162873,duckFrog,001,8,
frog,wnL.wav,-20,landoltCR.png,V2,frogFront.png,duckFront.png,HinCongWN,h,20,landoltCTop.png,,,,,3,8,248,31,,,h,0,0.767522758571,,,2020_Mar_04_0810,59.961162873,duckFrog,001,8,
frog,wnR.wav,20,landoltCBottom.png,V2,duckFront.png,frogFront.png,HinCongWN,b,-20,landoltCR.png,,,,,3,9,249,35,,,b,0,0.750549376011,,,2020_Mar_04_0810,59.961162873,duckFrog,001,8,
frog,wnR.wav,-20,landoltCR.png,V2,frogFront.png,duckFront.png,HcongWN,b,20,landoltCBottom.png,,,,,3,10,250,69,,,b,0,1.15081183024,,,2020_Mar_04_0810,59.961162873,duckFrog,001,8,
frog,ribbitR.wav,-20,landoltCL.png,V2,frogFront.png,duckFront.png,Hcong,b,20,landoltCBottom.png,,,,,3,11,251,52,,,b,0,1.30109948516,,,2020_Mar_04_0810,59.961162873,duckFrog,001,8,
frog,ribbitL.wav,20,landoltCTop.png,V2,duckFront.png,frogFront.png,Hcong,h,-20,landoltCR.png,,,,,3,12,252,24,,,h,0,0.833953363064,,,2020_Mar_04_0810,59.961162873,duckFrog,001,8,
frog,ribbitR.wav,-20,landoltCL.png,V2,frogFront.png,duckFront.png,Hcong,h,20,landoltCTop.png,,,,,3,13,253,44,,,h,0,1.05780773764,,,2020_Mar_04_0810,59.961162873,duckFrog,001,8,
frog,quackR.wav,20,landoltCBottom.png,V2,duckFront.png,frogFront.png,HinCong,b,-20,landoltCL.png,,,,,3,14,254,18,,,b,0,0.683799867664,,,2020_Mar_04_0810,59.961162873,duckFrog,001,8,
duck,wnR.wav,20,landoltCBottom.png,V2,frogFront.png,duckFront.png,LinCongWN,b,-20,landoltCL.png,,,,,3,15,255,11,,,b,0,1.06776266955,,,2020_Mar_04_0810,59.961162873,duckFrog,001,8,
frog,quackL.wav,-20,landoltCL.png,V2,frogFront.png,duckFront.png,HinCong,b,20,landoltCBottom.png,,,,,3,16,256,22,,,b,0,0.700553683069,,,2020_Mar_04_0810,59.961162873,duckFrog,001,8,
frog,ribbitR.wav,-20,landoltCL.png,V2,frogFront.png,duckFront.png,Hcong,h,20,landoltCTop.png,,,,,3,17,257,28,,,h,0,0.984365647077,,,2020_Mar_04_0810,59.961162873,duckFrog,001,8,
frog,ribbitL.wav,20,landoltCTop.png,V2,duckFront.png,frogFront.png,Hcong,h,-20,landoltCR.png,,,,,3,18,258,56,,,h,0,0.767262137146,,,2020_Mar_04_0810,59.961162873,duckFrog,001,8,
frog,wnL.wav,20,landoltCTop.png,V2,duckFront.png,frogFront.png,HcongWN,h,-20,landoltCL.png,,,,,3,19,259,73,,,h,0,1.05121082661,,,2020_Mar_04_0810,59.961162873,duckFrog,001,8,
frog,wnR.wav,-20,landoltCR.png,V2,frogFront.png,duckFront.png,HcongWN,b,20,landoltCBottom.png,,,,,3,20,260,53,,,b,0,0.867329400178,,,2020_Mar_04_0810,59.961162873,duckFrog,001,8,
frog,quackL.wav,-20,landoltCL.png,V2,frogFront.png,duckFront.png,HinCong,b,20,landoltCBottom.png,,,,,3,21,261,70,,,b,0,0.784125919366,,,2020_Mar_04_0810,59.961162873,duckFrog,001,8,
frog,quackR.wav,20,landoltCBottom.png,V2,duckFront.png,frogFront.png,HinCong,b,-20,landoltCL.png,,,,,3,22,262,34,,,b,0,0.700530956587,,,2020_Mar_04_0810,59.961162873,duckFrog,001,8,
frog,ribbitL.wav,20,landoltCBottom.png,V2,duckFront.png,frogFront.png,Hcong,b,-20,landoltCL.png,,,,,3,23,263,48,,,b,0,1.20113155883,,,2020_Mar_04_0810,59.961162873,duckFrog,001,8,
frog,ribbitR.wav,-20,landoltCL.png,V2,frogFront.png,duckFront.png,Hcong,b,20,landoltCBottom.png,,,,,3,24,264,68,,,b,0,1.16752862345,,,2020_Mar_04_0810,59.961162873,duckFrog,001,8,
frog,quackL.wav,-20,landoltCL.png,V2,frogFront.png,duckFront.png,HinCong,h,20,landoltCTop.png,,,,,3,25,265,78,,,h,0,0.917549792066,,,2020_Mar_04_0810,59.961162873,duckFrog,001,8,
frog,ribbitL.wav,20,landoltCTop.png,V2,duckFront.png,frogFront.png,Hcong,h,-20,landoltCR.png,,,,,3,26,266,40,,,h,0,0.483596428996,,,2020_Mar_04_0810,59.961162873,duckFrog,001,8,
frog,wnR.wav,20,landoltCTop.png,V2,duckFront.png,frogFront.png,HinCongWN,h,-20,landoltCL.png,,,,,3,27,267,27,,,b,0,1.05100298926,,,2020_Mar_04_0810,59.961162873,duckFrog,001,8,
duck,ribbitR.wav,20,landoltCTop.png,V2,frogFront.png,duckFront.png,LinCong,h,-20,landoltCL.png,,,,,3,28,268,2,,,h,0,1.36795859382,,,2020_Mar_04_0810,59.961162873,duckFrog,001,8,
frog,wnL.wav,-20,landoltCR.png,V2,frogFront.png,duckFront.png,HinCongWN,h,20,landoltCTop.png,,,,,3,29,269,79,,,h,0,0.984018151881,,,2020_Mar_04_0810,59.961162873,duckFrog,001,8,
frog,quackR.wav,20,landoltCTop.png,V2,duckFront.png,frogFront.png,HinCong,h,-20,landoltCR.png,,,,,3,30,270,42,,,h,0,1.45112285312,,,2020_Mar_04_0810,59.961162873,duckFrog,001,8,
duck,ribbitL.wav,-20,landoltCR.png,V2,duckFront.png,frogFront.png,LinCong,h,20,landoltCTop.png,,,,,3,31,271,6,,,h,0,1.3843865408,,,2020_Mar_04_0810,59.961162873,duckFrog,001,8,
duck,wnR.wav,-20,landoltCL.png,V2,duckFront.png,frogFront.png,LcongWN,b,20,landoltCBottom.png,,,,,3,32,272,13,,,b,0,1.20106557873,,,2020_Mar_04_0810,59.961162873,duckFrog,001,8,
frog,quackL.wav,-20,landoltCL.png,V2,frogFront.png,duckFront.png,HinCong,b,20,landoltCBottom.png,,,,,3,33,273,38,,,b,0,0.867515977268,,,2020_Mar_04_0810,59.961162873,duckFrog,001,8,
duck,wnL.wav,-20,landoltCL.png,V2,duckFront.png,frogFront.png,LinCongWN,h,20,landoltCTop.png,,,,,3,34,274,7,,,h,0,0.667558864341,,,2020_Mar_04_0810,59.961162873,duckFrog,001,8,
duck,wnL.wav,-20,landoltCL.png,V2,duckFront.png,frogFront.png,LinCongWN,b,20,landoltCBottom.png,,,,,3,35,275,15,,,b,0,0.967655451881,,,2020_Mar_04_0810,59.961162873,duckFrog,001,8,
frog,wnL.wav,-20,landoltCR.png,V2,frogFront.png,duckFront.png,HinCongWN,b,20,landoltCBottom.png,,,,,3,36,276,39,,,b,0,0.750797167973,,,2020_Mar_04_0810,59.961162873,duckFrog,001,8,
duck,quackR.wav,-20,landoltCR.png,V2,duckFront.png,frogFront.png,Lcong,b,20,landoltCBottom.png,,,,,3,37,277,12,,,b,0,0.700862689904,,,2020_Mar_04_0810,59.961162873,duckFrog,001,8,
frog,wnL.wav,-20,landoltCR.png,V2,frogFront.png,duckFront.png,HinCongWN,b,20,landoltCBottom.png,,,,,3,38,278,71,,,h,0,0.583948506188,,,2020_Mar_04_0810,59.961162873,duckFrog,001,8,
frog,ribbitR.wav,-20,landoltCL.png,V2,frogFront.png,duckFront.png,Hcong,h,20,landoltCTop.png,,,,,3,39,279,76,,,h,0,0.784131784283,,,2020_Mar_04_0810,59.961162873,duckFrog,001,8,
frog,wnR.wav,-20,landoltCR.png,V2,frogFront.png,duckFront.png,HcongWN,h,20,landoltCTop.png,,,,,3,40,280,45,,,h,0,0.884241201275,,,2020_Mar_04_0810,59.961162873,duckFrog,001,8,
duck,quackL.wav,20,landoltCTop.png,V2,frogFront.png,duckFront.png,Lcong,h,-20,landoltCL.png,,,,,3,41,281,0,,,h,0,0.817282389355,,,2020_Mar_04_0810,59.961162873,duckFrog,001,8,
frog,wnR.wav,-20,landoltCR.png,V2,frogFront.png,duckFront.png,HcongWN,h,20,landoltCTop.png,,,,,3,42,282,61,,,h,0,0.767191025225,,,2020_Mar_04_0810,59.961162873,duckFrog,001,8,
frog,quackL.wav,-20,landoltCL.png,V2,frogFront.png,duckFront.png,HinCong,b,20,landoltCBottom.png,,,,,3,43,283,54,,,b,0,0.88428665424,,,2020_Mar_04_0810,59.961162873,duckFrog,001,8,
frog,quackR.wav,20,landoltCBottom.png,V2,duckFront.png,frogFront.png,HinCong,b,-20,landoltCL.png,,,,,3,44,284,50,,,b,0,0.600405777659,,,2020_Mar_04_0810,59.961162873,duckFrog,001,8,
frog,wnR.wav,20,landoltCBottom.png,V2,duckFront.png,frogFront.png,HinCongWN,b,-20,landoltCR.png,,,,,3,45,285,51,,,b,0,1.23452079197,,,2020_Mar_04_0810,59.961162873,duckFrog,001,8,
frog,wnR.wav,20,landoltCTop.png,V2,duckFront.png,frogFront.png,HinCongWN,h,-20,landoltCL.png,,,,,3,46,286,75,,,h,0,1.48487900899,,,2020_Mar_04_0810,59.961162873,duckFrog,001,8,
frog,wnR.wav,20,landoltCBottom.png,V2,duckFront.png,frogFront.png,HinCongWN,b,-20,landoltCR.png,,,,,3,47,287,19,,,b,0,1.33458695537,,,2020_Mar_04_0810,59.961162873,duckFrog,001,8,
frog,wnR.wav,-20,landoltCR.png,V2,frogFront.png,duckFront.png,HcongWN,h,20,landoltCTop.png,,,,,3,48,288,29,,,h,0,0.633780715114,,,2020_Mar_04_0810,59.961162873,duckFrog,001,8,
frog,quackR.wav,20,landoltCBottom.png,V2,duckFront.png,frogFront.png,HinCong,b,-20,landoltCL.png,,,,,3,49,289,66,,,b,0,0.683833590825,,,2020_Mar_04_0810,59.961162873,duckFrog,001,8,
frog,wnL.wav,-20,landoltCR.png,V2,frogFront.png,duckFront.png,HinCongWN,b,20,landoltCBottom.png,,,,,3,50,290,23,,,b,0,0.650601976842,,,2020_Mar_04_0810,59.961162873,duckFrog,001,8,
frog,wnL.wav,20,landoltCTop.png,V2,duckFront.png,frogFront.png,HcongWN,h,-20,landoltCL.png,,,,,3,51,291,57,,,h,0,0.717160142871,,,2020_Mar_04_0810,59.961162873,duckFrog,001,8,
frog,wnL.wav,20,landoltCBottom.png,V2,duckFront.png,frogFront.png,HcongWN,b,-20,landoltCR.png,,,,,3,52,292,65,,,b,0,0.600702321564,,,2020_Mar_04_0810,59.961162873,duckFrog,001,8,
frog,wnR.wav,20,landoltCBottom.png,V2,duckFront.png,frogFront.png,HinCongWN,b,-20,landoltCR.png,,,,,3,53,293,67,,,b,0,1.18453609571,,,2020_Mar_04_0810,59.961162873,duckFrog,001,8,
frog,ribbitL.wav,20,landoltCBottom.png,V2,duckFront.png,frogFront.png,Hcong,b,-20,landoltCL.png,,,,,3,54,294,32,,,b,0,0.634204820584,,,2020_Mar_04_0810,59.961162873,duckFrog,001,8,
frog,ribbitR.wav,-20,landoltCL.png,V2,frogFront.png,duckFront.png,Hcong,h,20,landoltCTop.png,,,,,3,55,295,60,,,h,0,0.600450864062,,,2020_Mar_04_0810,59.961162873,duckFrog,001,8,
frog,quackL.wav,-20,landoltCL.png,V2,frogFront.png,duckFront.png,HinCong,h,20,landoltCTop.png,,,,,3,56,296,62,,,h,0,0.750811830221,,,2020_Mar_04_0810,59.961162873,duckFrog,001,8,
duck,ribbitL.wav,-20,landoltCR.png,V2,duckFront.png,frogFront.png,LinCong,b,20,landoltCBottom.png,,,,,3,57,297,14,,,b,0,0.934279048204,,,2020_Mar_04_0810,59.961162873,duckFrog,001,8,
frog,wnL.wav,20,landoltCBottom.png,V2,duckFront.png,frogFront.png,HcongWN,b,-20,landoltCR.png,,,,,3,58,298,17,,,b,0,1.15091190007,,,2020_Mar_04_0810,59.961162873,duckFrog,001,8,
frog,quackL.wav,-20,landoltCL.png,V2,frogFront.png,duckFront.png,HinCong,h,20,landoltCTop.png,,,,,3,59,299,46,,,h,0,0.750569536642,,,2020_Mar_04_0810,59.961162873,duckFrog,001,8,
duck,quackR.wav,-20,landoltCR.png,V2,duckFront.png,frogFront.png,Lcong,h,20,landoltCTop.png,,,,,3,60,300,4,,,h,0,0.734123261849,,,2020_Mar_04_0810,59.961162873,duckFrog,001,8,
duck,wnR.wav,20,landoltCTop.png,V2,frogFront.png,duckFront.png,LinCongWN,h,-20,landoltCR.png,,,,,3,61,301,3,,,h,0,1.28427749034,,,2020_Mar_04_0810,59.961162873,duckFrog,001,8,
duck,quackL.wav,20,landoltCBottom.png,V2,frogFront.png,duckFront.png,Lcong,b,-20,landoltCR.png,,,,,3,62,302,8,,,b,0,1.11798269491,,,2020_Mar_04_0810,59.961162873,duckFrog,001,8,
frog,wnR.wav,-20,landoltCR.png,V2,frogFront.png,duckFront.png,HcongWN,b,20,landoltCBottom.png,,,,,3,63,303,37,,,b,0,0.63381003961,,,2020_Mar_04_0810,59.961162873,duckFrog,001,8,
duck,ribbitR.wav,20,landoltCBottom.png,V2,frogFront.png,duckFront.png,LinCong,b,-20,landoltCR.png,,,,,3,64,304,10,,,b,0,1.21757783362,,,2020_Mar_04_0810,59.961162873,duckFrog,001,8,
frog,wnL.wav,20,landoltCTop.png,V2,duckFront.png,frogFront.png,HcongWN,h,-20,landoltCL.png,,,,,3,65,305,41,,,h,0,1.16778411309,,,2020_Mar_04_0810,59.961162873,duckFrog,001,8,
duck,wnL.wav,20,landoltCTop.png,V2,frogFront.png,duckFront.png,LcongWN,h,-20,landoltCR.png,,,,,3,66,306,1,,,h,0,0.784135449852,,,2020_Mar_04_0810,59.961162873,duckFrog,001,8,
frog,wnL.wav,20,landoltCBottom.png,V2,duckFront.png,frogFront.png,HcongWN,b,-20,landoltCR.png,,,,,3,67,307,33,,,b,0,0.517292103119,,,2020_Mar_04_0810,59.961162873,duckFrog,001,8,
frog,ribbitR.wav,-20,landoltCL.png,V2,frogFront.png,duckFront.png,Hcong,b,20,landoltCBottom.png,,,,,3,68,308,36,,,b,0,0.867251690273,,,2020_Mar_04_0810,59.961162873,duckFrog,001,8,
frog,quackR.wav,20,landoltCTop.png,V2,duckFront.png,frogFront.png,HinCong,h,-20,landoltCR.png,,,,,3,69,309,74,,,b,0,0.850630934758,,,2020_Mar_04_0810,59.961162873,duckFrog,001,8,
frog,ribbitL.wav,20,landoltCTop.png,V2,duckFront.png,frogFront.png,Hcong,h,-20,landoltCR.png,,,,,3,70,310,72,,,h,0,1.20113998963,,,2020_Mar_04_0810,59.961162873,duckFrog,001,8,
frog,ribbitR.wav,-20,landoltCL.png,V2,frogFront.png,duckFront.png,Hcong,b,20,landoltCBottom.png,,,,,3,71,311,20,,,b,0,1.06750314779,,,2020_Mar_04_0810,59.961162873,duckFrog,001,8,
frog,wnL.wav,-20,landoltCR.png,V2,frogFront.png,duckFront.png,HinCongWN,b,20,landoltCBottom.png,,,,,3,72,312,55,,,b,0,0.634067728592,,,2020_Mar_04_0810,59.961162873,duckFrog,001,8,
duck,wnL.wav,20,landoltCBottom.png,V2,frogFront.png,duckFront.png,LcongWN,b,-20,landoltCL.png,,,,,3,73,313,9,,,b,0,0.984100260423,,,2020_Mar_04_0810,59.961162873,duckFrog,001,8,
frog,quackR.wav,20,landoltCTop.png,V2,duckFront.png,frogFront.png,HinCong,h,-20,landoltCR.png,,,,,3,74,314,58,,,h,0,1.11777888966,,,2020_Mar_04_0810,59.961162873,duckFrog,001,8,
frog,wnL.wav,20,landoltCTop.png,V2,duckFront.png,frogFront.png,HcongWN,h,-20,landoltCL.png,,,,,3,75,315,25,,,h,0,0.817520650831,,,2020_Mar_04_0810,59.961162873,duckFrog,001,8,
frog,wnL.wav,-20,landoltCR.png,V2,frogFront.png,duckFront.png,HinCongWN,h,20,landoltCTop.png,,,,,3,76,316,47,,,h,0,0.934465625265,,,2020_Mar_04_0810,59.961162873,duckFrog,001,8,
frog,wnL.wav,20,landoltCBottom.png,V2,duckFront.png,frogFront.png,HcongWN,b,-20,landoltCR.png,,,,,3,77,317,49,,,b,0,0.550312580774,,,2020_Mar_04_0810,59.961162873,duckFrog,001,8,
frog,quackL.wav,-20,landoltCL.png,V2,frogFront.png,duckFront.png,HinCong,h,20,landoltCTop.png,,,,,3,78,318,30,,,h,0,0.667169948254,,,2020_Mar_04_0810,59.961162873,duckFrog,001,8,
frog,wnR.wav,-20,landoltCR.png,V2,frogFront.png,duckFront.png,HcongWN,h,20,landoltCTop.png,,,,,3,79,319,77,,,h,0,0.70073402868,,,2020_Mar_04_0810,59.961162873,duckFrog,001,8,
frog,wnL.wav,20,landoltCTop.png,V2,duckFront.png,frogFront.png,HcongWN,h,-20,landoltCL.png,,,,,4,0,320,41,,,h,0,1.01748289558,,,2020_Mar_04_0810,59.961162873,duckFrog,001,8,
frog,ribbitR.wav,-20,landoltCL.png,V2,frogFront.png,duckFront.png,Hcong,b,20,landoltCBottom.png,,,,,4,1,321,20,,,b,0,0.834012378589,,,2020_Mar_04_0810,59.961162873,duckFrog,001,8,
duck,quackL.wav,20,landoltCTop.png,V2,frogFront.png,duckFront.png,Lcong,h,-20,landoltCL.png,,,,,4,2,322,0,,,h,0,0.783914049913,,,2020_Mar_04_0810,59.961162873,duckFrog,001,8,
frog,wnL.wav,-20,landoltCR.png,V2,frogFront.png,duckFront.png,HinCongWN,b,20,landoltCBottom.png,,,,,4,3,323,23,,,b,0,0.733841380163,,,2020_Mar_04_0810,59.961162873,duckFrog,001,8,
frog,wnL.wav,20,landoltCBottom.png,V2,duckFront.png,frogFront.png,HcongWN,b,-20,landoltCR.png,,,,,4,4,324,49,,,b,0,1.33432413463,,,2020_Mar_04_0810,59.961162873,duckFrog,001,8,
duck,ribbitL.wav,-20,landoltCR.png,V2,duckFront.png,frogFront.png,LinCong,b,20,landoltCBottom.png,,,,,4,5,325,14,,,b,0,0.767199456022,,,2020_Mar_04_0810,59.961162873,duckFrog,001,8,
frog,quackR.wav,20,landoltCBottom.png,V2,duckFront.png,frogFront.png,HinCong,b,-20,landoltCL.png,,,,,4,6,326,66,,,b,0,1.13441210808,,,2020_Mar_04_0810,59.961162873,duckFrog,001,8,
duck,wnL.wav,20,landoltCBottom.png,V2,frogFront.png,duckFront.png,LcongWN,b,-20,landoltCL.png,,,,,4,7,327,9,,,b,0,0.884290319809,,,2020_Mar_04_0810,59.961162873,duckFrog,001,8,
frog,wnR.wav,-20,landoltCR.png,V2,frogFront.png,duckFront.png,HcongWN,b,20,landoltCBottom.png,,,,,4,8,328,53,,,b,0,1.16750736319,,,2020_Mar_04_0810,59.961162873,duckFrog,001,8,
frog,ribbitR.wav,-20,landoltCL.png,V2,frogFront.png,duckFront.png,Hcong,h,20,landoltCTop.png,,,,,4,9,329,28,,,h,0,1.23447167347,,,2020_Mar_04_0810,59.961162873,duckFrog,001,8,
frog,quackR.wav,20,landoltCBottom.png,V2,duckFront.png,frogFront.png,HinCong,b,-20,landoltCL.png,,,,,4,10,330,18,,,b,0,0.683765044843,,,2020_Mar_04_0810,59.961162873,duckFrog,001,8,
frog,ribbitR.wav,-20,landoltCL.png,V2,frogFront.png,duckFront.png,Hcong,b,20,landoltCBottom.png,,,,,4,11,331,36,,,b,0,0.767199089489,,,2020_Mar_04_0810,59.961162873,duckFrog,001,8,
frog,ribbitL.wav,20,landoltCBottom.png,V2,duckFront.png,frogFront.png,Hcong,b,-20,landoltCL.png,,,,,4,12,332,16,,,b,0,0.833990018669,,,2020_Mar_04_0810,59.961162873,duckFrog,001,8,
duck,ribbitL.wav,-20,landoltCR.png,V2,duckFront.png,frogFront.png,LinCong,h,20,landoltCTop.png,,,,,4,13,333,6,,,h,0,0.95071945808,,,2020_Mar_04_0810,59.961162873,duckFrog,001,8,
frog,ribbitL.wav,20,landoltCTop.png,V2,duckFront.png,frogFront.png,Hcong,h,-20,landoltCR.png,,,,,4,14,334,72,,,h,0,0.767178562353,,,2020_Mar_04_0810,59.961162873,duckFrog,001,8,
duck,wnL.wav,20,landoltCTop.png,V2,frogFront.png,duckFront.png,LcongWN,h,-20,landoltCR.png,,,,,4,15,335,1,,,h,0,1.25119653091,,,2020_Mar_04_0810,59.961162873,duckFrog,001,8,
frog,wnL.wav,-20,landoltCR.png,V2,frogFront.png,duckFront.png,HinCongWN,h,20,landoltCTop.png,,,,,4,16,336,31,,,h,0,0.83392917036,,,2020_Mar_04_0810,59.961162873,duckFrog,001,8,
frog,wnL.wav,20,landoltCBottom.png,V2,duckFront.png,frogFront.png,HcongWN,b,-20,landoltCR.png,,,,,4,17,337,17,,,b,0,0.683802067011,,,2020_Mar_04_0810,59.961162873,duckFrog,001,8,
frog,ribbitR.wav,-20,landoltCL.png,V2,frogFront.png,duckFront.png,Hcong,h,20,landoltCTop.png,,,,,4,18,338,76,,,h,0,0.717270109744,,,2020_Mar_04_0810,59.961162873,duckFrog,001,8,
frog,quackL.wav,-20,landoltCL.png,V2,frogFront.png,duckFront.png,HinCong,h,20,landoltCTop.png,,,,,4,19,339,78,,,b,0,1.1511439301,,,2020_Mar_04_0810,59.961162873,duckFrog,001,8,
frog,ribbitR.wav,-20,landoltCL.png,V2,frogFront.png,duckFront.png,Hcong,h,20,landoltCTop.png,,,,,4,20,340,44,,,h,0,0.650887524069,,,2020_Mar_04_0810,59.961162873,duckFrog,001,8,
duck,quackR.wav,-20,landoltCR.png,V2,duckFront.png,frogFront.png,Lcong,h,20,landoltCTop.png,,,,,4,21,341,4,,,h,0,1.06777110035,,,2020_Mar_04_0810,59.961162873,duckFrog,001,8,
frog,ribbitL.wav,20,landoltCBottom.png,V2,duckFront.png,frogFront.png,Hcong,b,-20,landoltCL.png,,,,,4,22,342,48,,,b,0,0.750569536642,,,2020_Mar_04_0810,59.961162873,duckFrog,001,8,
frog,wnR.wav,-20,landoltCR.png,V2,frogFront.png,duckFront.png,HcongWN,h,20,landoltCTop.png,,,,,4,23,343,29,,,h,0,0.867298609461,,,2020_Mar_04_0810,59.961162873,duckFrog,001,8,
frog,wnR.wav,20,landoltCTop.png,V2,duckFront.png,frogFront.png,HinCongWN,h,-20,landoltCL.png,,,,,4,24,344,27,,,h,0,1.01749462535,,,2020_Mar_04_0810,59.961162873,duckFrog,001,8,
frog,wnR.wav,20,landoltCBottom.png,V2,duckFront.png,frogFront.png,HinCongWN,b,-20,landoltCR.png,,,,,4,25,345,19,,,b,0,0.834235611284,,,2020_Mar_04_0810,59.961162873,duckFrog,001,8,
frog,wnL.wav,20,landoltCTop.png,V2,duckFront.png,frogFront.png,HcongWN,h,-20,landoltCL.png,,,,,4,26,346,25,,,h,0,1.25140546792,,,2020_Mar_04_0810,59.961162873,duckFrog,001,8,
frog,ribbitL.wav,20,landoltCTop.png,V2,duckFront.png,frogFront.png,Hcong,h,-20,landoltCR.png,,,,,4,27,347,24,,,h,0,1.21783698883,,,2020_Mar_04_0810,59.961162873,duckFrog,001,8,
frog,wnR.wav,20,landoltCTop.png,V2,duckFront.png,frogFront.png,HinCongWN,h,-20,landoltCL.png,,,,,4,28,348,75,,,h,0,0.767618796264,,,2020_Mar_04_0810,59.961162873,duckFrog,001,8,
frog,ribbitL.wav,20,landoltCBottom.png,V2,duckFront.png,frogFront.png,Hcong,b,-20,landoltCL.png,,,,,4,29,349,32,,,b,0,0.717377877241,,,2020_Mar_04_0810,59.961162873,duckFrog,001,8,
frog,wnL.wav,-20,landoltCR.png,V2,frogFront.png,duckFront.png,HinCongWN,h,20,landoltCTop.png,,,,,4,30,350,79,,,h,0,0.60050291504,,,2020_Mar_04_0810,59.961162873,duckFrog,001,8,
frog,quackL.wav,-20,landoltCL.png,V2,frogFront.png,duckFront.png,HinCong,h,20,landoltCTop.png,,,,,4,31,351,62,,,h,0,1.30127909768,,,2020_Mar_04_0810,59.961162873,duckFrog,001,8,
frog,wnR.wav,-20,landoltCR.png,V2,frogFront.png,duckFront.png,HcongWN,h,20,landoltCTop.png,,,,,4,32,352,45,,,h,0,0.767523491668,,,2020_Mar_04_0810,59.961162873,duckFrog,001,8,
frog,wnL.wav,-20,landoltCR.png,V2,frogFront.png,duckFront.png,HinCongWN,b,20,landoltCBottom.png,,,,,4,33,353,55,,,b,0,0.734023925121,,,2020_Mar_04_0810,59.961162873,duckFrog,001,8,
frog,ribbitL.wav,20,landoltCBottom.png,V2,duckFront.png,frogFront.png,Hcong,b,-20,landoltCL.png,,,,,4,34,354,64,,,b,0,0.900668415154,,,2020_Mar_04_0810,59.961162873,duckFrog,001,8,
duck,wnR.wav,20,landoltCBottom.png,V2,frogFront.png,duckFront.png,LinCongWN,b,-20,landoltCL.png,,,,,4,35,355,11,,,h,0,1.32968133441,,,2020_Mar_04_0810,59.961162873,duckFrog,001,8,
frog,quackR.wav,20,landoltCTop.png,V2,duckFront.png,frogFront.png,HinCong,h,-20,landoltCR.png,,,,,4,36,356,74,,,h,0,0.850949105516,,,2020_Mar_04_0810,59.961162873,duckFrog,001,8,
duck,wnL.wav,-20,landoltCL.png,V2,duckFront.png,frogFront.png,LinCongWN,b,20,landoltCBottom.png,,,,,4,37,357,15,,,b,0,1.00081742019,,,2020_Mar_04_0810,59.961162873,duckFrog,001,8,
duck,ribbitR.wav,20,landoltCBottom.png,V2,frogFront.png,duckFront.png,LinCong,b,-20,landoltCR.png,,,,,4,38,358,10,,,b,0,0.700519593345,,,2020_Mar_04_0810,59.961162873,duckFrog,001,8,
frog,wnR.wav,-20,landoltCR.png,V2,frogFront.png,duckFront.png,HcongWN,b,20,landoltCBottom.png,,,,,4,39,359,37,,,b,0,1.2509549704,,,2020_Mar_04_0810,59.961162873,duckFrog,001,8,
frog,wnL.wav,-20,landoltCR.png,V2,frogFront.png,duckFront.png,HinCongWN,b,20,landoltCBottom.png,,,,,4,40,360,39,,,b,0,0.850915015792,,,2020_Mar_04_0810,59.961162873,duckFrog,001,8,
frog,quackL.wav,-20,landoltCL.png,V2,frogFront.png,duckFront.png,HinCong,b,20,landoltCBottom.png,,,,,4,41,361,22,,,b,0,0.850776091014,,,2020_Mar_04_0810,59.961162873,duckFrog,001,8,
frog,quackR.wav,20,landoltCBottom.png,V2,duckFront.png,frogFront.png,HinCong,b,-20,landoltCL.png,,,,,4,42,362,34,,,b,0,0.483851185534,,,2020_Mar_04_0810,59.961162873,duckFrog,001,8,
frog,wnL.wav,20,landoltCBottom.png,V2,duckFront.png,frogFront.png,HcongWN,b,-20,landoltCR.png,,,,,4,43,363,33,,,b,0,0.85093334358,,,2020_Mar_04_0810,59.961162873,duckFrog,001,8,
frog,wnL.wav,-20,landoltCR.png,V2,frogFront.png,duckFront.png,HinCongWN,h,20,landoltCTop.png,,,,,4,44,364,63,,,h,0,0.800576959387,,,2020_Mar_04_0810,59.961162873,duckFrog,001,8,
frog,wnR.wav,20,landoltCTop.png,V2,duckFront.png,frogFront.png,HinCongWN,h,-20,landoltCL.png,,,,,4,45,365,43,,,h,0,1.36764188932,,,2020_Mar_04_0810,59.961162873,duckFrog,001,8,
duck,wnR.wav,-20,landoltCL.png,V2,duckFront.png,frogFront.png,LcongWN,h,20,landoltCTop.png,,,,,4,46,366,5,,,h,0,2.61873101926,,,2020_Mar_04_0810,59.961162873,duckFrog,001,8,
duck,ribbitR.wav,20,landoltCTop.png,V2,frogFront.png,duckFront.png,LinCong,h,-20,landoltCL.png,,,,,4,47,367,2,,,h,0,0.900699572405,,,2020_Mar_04_0810,59.961162873,duckFrog,001,8,
frog,quackR.wav,20,landoltCTop.png,V2,duckFront.png,frogFront.png,HinCong,h,-20,landoltCR.png,,,,,4,48,368,58,,,h,0,0.767513961211,,,2020_Mar_04_0810,59.961162873,duckFrog,001,8,
frog,quackL.wav,-20,landoltCL.png,V2,frogFront.png,duckFront.png,HinCong,b,20,landoltCBottom.png,,,,,4,49,369,54,,,b,0,1.2007349451,,,2020_Mar_04_0810,59.961162873,duckFrog,001,8,
frog,ribbitR.wav,-20,landoltCL.png,V2,frogFront.png,duckFront.png,Hcong,b,20,landoltCBottom.png,,,,,4,50,370,52,,,b,0,0.800836481125,,,2020_Mar_04_0810,59.961162873,duckFrog,001,8,
duck,wnL.wav,-20,landoltCL.png,V2,duckFront.png,frogFront.png,LinCongWN,h,20,landoltCTop.png,,,,,4,51,371,7,,,h,0,2.46883924495,,,2020_Mar_04_0810,59.961162873,duckFrog,001,8,
frog,quackL.wav,-20,landoltCL.png,V2,frogFront.png,duckFront.png,HinCong,h,20,landoltCTop.png,,,,,4,52,372,30,,,h,0,1.06787886785,,,2020_Mar_04_0810,59.961162873,duckFrog,001,8,
frog,quackR.wav,20,landoltCTop.png,V2,duckFront.png,frogFront.png,HinCong,h,-20,landoltCR.png,,,,,4,53,373,42,,,h,0,0.784639831109,,,2020_Mar_04_0810,59.961162873,duckFrog,001,8,
frog,wnL.wav,20,landoltCBottom.png,V2,duckFront.png,frogFront.png,HcongWN,b,-20,landoltCR.png,,,,,4,54,374,65,,,b,0,0.534013661556,,,2020_Mar_04_0810,59.961162873,duckFrog,001,8,
frog,wnR.wav,20,landoltCTop.png,V2,duckFront.png,frogFront.png,HinCongWN,h,-20,landoltCL.png,,,,,4,55,375,59,,,h,0,0.850886057859,,,2020_Mar_04_0810,59.961162873,duckFrog,001,8,
frog,quackR.wav,20,landoltCTop.png,V2,duckFront.png,frogFront.png,HinCong,h,-20,landoltCR.png,,,,,4,56,376,26,,,b,0,0.647257885081,,,2020_Mar_04_0810,59.961162873,duckFrog,001,8,
frog,ribbitR.wav,-20,landoltCL.png,V2,frogFront.png,duckFront.png,Hcong,h,20,landoltCTop.png,,,,,4,57,377,60,,,h,0,0.75051565285,,,2020_Mar_04_0810,59.961162873,duckFrog,001,8,
frog,wnL.wav,-20,landoltCR.png,V2,frogFront.png,duckFront.png,HinCongWN,b,20,landoltCBottom.png,,,,,4,58,378,71,,,b,0,0.550675104809,,,2020_Mar_04_0810,59.961162873,duckFrog,001,8,
frog,wnR.wav,20,landoltCBottom.png,V2,duckFront.png,frogFront.png,HinCongWN,b,-20,landoltCR.png,,,,,4,59,379,51,,,b,0,0.600438401161,,,2020_Mar_04_0810,59.961162873,duckFrog,001,8,
duck,wnR.wav,-20,landoltCL.png,V2,duckFront.png,frogFront.png,LcongWN,b,20,landoltCBottom.png,,,,,4,60,380,13,,,b,0,1.05083364033,,,2020_Mar_04_0810,59.961162873,duckFrog,001,8,
frog,wnR.wav,-20,landoltCR.png,V2,frogFront.png,duckFront.png,HcongWN,b,20,landoltCBottom.png,,,,,4,61,381,21,,,b,0,1.11774186749,,,2020_Mar_04_0810,59.961162873,duckFrog,001,8,
frog,wnR.wav,20,landoltCBottom.png,V2,duckFront.png,frogFront.png,HinCongWN,b,-20,landoltCR.png,,,,,4,62,382,67,,,b,0,0.61724096851,,,2020_Mar_04_0810,59.961162873,duckFrog,001,8,
frog,wnL.wav,20,landoltCTop.png,V2,duckFront.png,frogFront.png,HcongWN,h,-20,landoltCL.png,,,,,4,63,383,57,,,b,0,0.734155152226,,,2020_Mar_04_0810,59.961162873,duckFrog,001,8,
frog,wnL.wav,-20,landoltCR.png,V2,frogFront.png,duckFront.png,HinCongWN,h,20,landoltCTop.png,,,,,4,64,384,47,,,h,0,1.25094104127,,,2020_Mar_04_0810,59.961162873,duckFrog,001,8,
frog,ribbitL.wav,20,landoltCTop.png,V2,duckFront.png,frogFront.png,Hcong,h,-20,landoltCR.png,,,,,4,65,385,56,,,h,0,0.533727747737,,,2020_Mar_04_0810,59.961162873,duckFrog,001,8,
frog,wnR.wav,-20,landoltCR.png,V2,frogFront.png,duckFront.png,HcongWN,h,20,landoltCTop.png,,,,,4,66,386,77,,,h,0,0.750559639593,,,2020_Mar_04_0810,59.961162873,duckFrog,001,8,
frog,quackL.wav,-20,landoltCL.png,V2,frogFront.png,duckFront.png,HinCong,b,20,landoltCBottom.png,,,,,4,67,387,70,,,b,0,0.834164499393,,,2020_Mar_04_0810,59.961162873,duckFrog,001,8,
frog,wnR.wav,-20,landoltCR.png,V2,frogFront.png,duckFront.png,HcongWN,h,20,landoltCTop.png,,,,,4,68,388,61,,,h,0,1.25120386202,,,2020_Mar_04_0810,59.961162873,duckFrog,001,8,
frog,quackL.wav,-20,landoltCL.png,V2,frogFront.png,duckFront.png,HinCong,h,20,landoltCTop.png,,,,,4,69,389,46,,,h,0,0.584008621401,,,2020_Mar_04_0810,59.961162873,duckFrog,001,8,
frog,wnL.wav,20,landoltCTop.png,V2,duckFront.png,frogFront.png,HcongWN,h,-20,landoltCL.png,,,,,4,70,390,73,,,h,0,0.683843487874,,,2020_Mar_04_0810,59.961162873,duckFrog,001,8,
frog,quackL.wav,-20,landoltCL.png,V2,frogFront.png,duckFront.png,HinCong,b,20,landoltCBottom.png,,,,,4,71,391,38,,,b,0,0.600412009109,,,2020_Mar_04_0810,59.961162873,duckFrog,001,8,
frog,ribbitL.wav,20,landoltCTop.png,V2,duckFront.png,frogFront.png,Hcong,h,-20,landoltCR.png,,,,,4,72,392,40,,,h,0,0.667198173091,,,2020_Mar_04_0810,59.961162873,duckFrog,001,8,
frog,ribbitR.wav,-20,landoltCL.png,V2,frogFront.png,duckFront.png,Hcong,b,20,landoltCBottom.png,,,,,4,73,393,68,,,b,0,0.767250773904,,,2020_Mar_04_0810,59.961162873,duckFrog,001,8,
duck,quackR.wav,-20,landoltCR.png,V2,duckFront.png,frogFront.png,Lcong,b,20,landoltCBottom.png,,,,,4,74,394,12,,,b,0,1.33457302625,,,2020_Mar_04_0810,59.961162873,duckFrog,001,8,
frog,wnR.wav,-20,landoltCR.png,V2,frogFront.png,duckFront.png,HcongWN,b,20,landoltCBottom.png,,,,,4,75,395,69,,,b,0,0.717463651381,,,2020_Mar_04_0810,59.961162873,duckFrog,001,8,
frog,wnR.wav,20,landoltCBottom.png,V2,duckFront.png,frogFront.png,HinCongWN,b,-20,landoltCR.png,,,,,4,76,396,35,,,b,0,0.400326601521,,,2020_Mar_04_0810,59.961162873,duckFrog,001,8,
duck,quackL.wav,20,landoltCBottom.png,V2,frogFront.png,duckFront.png,Lcong,b,-20,landoltCR.png,,,,,4,77,397,8,,,b,0,1.25112175348,,,2020_Mar_04_0810,59.961162873,duckFrog,001,8,
frog,quackR.wav,20,landoltCBottom.png,V2,duckFront.png,frogFront.png,HinCong,b,-20,landoltCL.png,,,,,4,78,398,50,,,b,0,0.667505713704,,,2020_Mar_04_0810,59.961162873,duckFrog,001,8,
duck,wnR.wav,20,landoltCTop.png,V2,frogFront.png,duckFront.png,LinCongWN,h,-20,landoltCR.png,,,,,4,79,399,3,,,h,0,0.567394463898,,,2020_Mar_04_0810,59.961162873,duckFrog,001,8,
frog,wnR.wav,-20,landoltCR.png,V2,frogFront.png,duckFront.png,HcongWN,h,20,landoltCTop.png,,,,,5,0,400,77,,,h,0,1.31760294273,,,2020_Mar_04_0810,59.961162873,duckFrog,001,8,
frog,wnR.wav,20,landoltCTop.png,V2,duckFront.png,frogFront.png,HinCongWN,h,-20,landoltCL.png,,,,,5,1,401,59,,,h,0,0.667151987,,,2020_Mar_04_0810,59.961162873,duckFrog,001,8,
frog,wnL.wav,20,landoltCBottom.png,V2,duckFront.png,frogFront.png,HcongWN,b,-20,landoltCR.png,,,,,5,2,402,33,,,b,0,0.567244542442,,,2020_Mar_04_0810,59.961162873,duckFrog,001,8,
frog,wnR.wav,-20,landoltCR.png,V2,frogFront.png,duckFront.png,HcongWN,h,20,landoltCTop.png,,,,,5,3,403,61,,,h,0,0.900650820433,,,2020_Mar_04_0810,59.961162873,duckFrog,001,8,
frog,wnR.wav,20,landoltCBottom.png,V2,duckFront.png,frogFront.png,HinCongWN,b,-20,landoltCR.png,,,,,5,4,404,19,,,b,0,0.533661767666,,,2020_Mar_04_0810,59.961162873,duckFrog,001,8,
duck,quackL.wav,20,landoltCBottom.png,V2,frogFront.png,duckFront.png,Lcong,b,-20,landoltCR.png,,,,,5,5,405,8,,,b,0,1.13444326536,,,2020_Mar_04_0810,59.961162873,duckFrog,001,8,
frog,quackL.wav,-20,landoltCL.png,V2,frogFront.png,duckFront.png,HinCong,b,20,landoltCBottom.png,,,,,5,6,406,54,,,b,0,1.00074814112,,,2020_Mar_04_0810,59.961162873,duckFrog,001,8,
frog,wnL.wav,-20,landoltCR.png,V2,frogFront.png,duckFront.png,HinCongWN,h,20,landoltCTop.png,,,,,5,7,407,31,,,h,0,0.567289995408,,,2020_Mar_04_0810,59.961162873,duckFrog,001,8,
duck,quackR.wav,-20,landoltCR.png,V2,duckFront.png,frogFront.png,Lcong,b,20,landoltCBottom.png,,,,,5,8,408,12,,,b,0,0.858339244063,,,2020_Mar_04_0810,59.961162873,duckFrog,001,8,
duck,wnR.wav,20,landoltCTop.png,V2,frogFront.png,duckFront.png,LinCongWN,h,-20,landoltCR.png,,,,,5,9,409,3,,,h,0,1.18422598919,,,2020_Mar_04_0810,59.961162873,duckFrog,001,8,
duck,quackL.wav,20,landoltCTop.png,V2,frogFront.png,duckFront.png,Lcong,h,-20,landoltCL.png,,,,,5,10,410,0,,,h,0,1.40134269517,,,2020_Mar_04_0810,59.961162873,duckFrog,001,8,
frog,ribbitL.wav,20,landoltCTop.png,V2,duckFront.png,frogFront.png,Hcong,h,-20,landoltCR.png,,,,,5,11,411,72,,,h,0,1.21779263552,,,2020_Mar_04_0810,59.961162873,duckFrog,001,8,
frog,quackL.wav,-20,landoltCL.png,V2,frogFront.png,duckFront.png,HinCong,h,20,landoltCTop.png,,,,,5,12,412,62,,,h,0,0.750560372719,,,2020_Mar_04_0810,59.961162873,duckFrog,001,8,
frog,wnR.wav,20,landoltCBottom.png,V2,duckFront.png,frogFront.png,HinCongWN,b,-20,landoltCR.png,,,,,5,13,413,35,,,b,0,0.883949789131,,,2020_Mar_04_0810,59.961162873,duckFrog,001,8,
frog,quackR.wav,20,landoltCTop.png,V2,duckFront.png,frogFront.png,HinCong,h,-20,landoltCR.png,,,,,5,14,414,58,,,b,0,0.850871395611,,,2020_Mar_04_0810,59.961162873,duckFrog,001,8,
frog,wnL.wav,20,landoltCTop.png,V2,duckFront.png,frogFront.png,HcongWN,h,-20,landoltCL.png,,,,,5,15,415,41,,,h,0,0.834399461892,,,2020_Mar_04_0810,59.961162873,duckFrog,001,8,
frog,wnL.wav,-20,landoltCR.png,V2,frogFront.png,duckFront.png,HinCongWN,h,20,landoltCTop.png,,,,,5,16,416,79,,,h,0,1.21756243828,,,2020_Mar_04_0810,59.961162873,duckFrog,001,8,
frog,ribbitR.wav,-20,landoltCL.png,V2,frogFront.png,duckFront.png,Hcong,b,20,landoltCBottom.png,,,,,5,17,417,68,,,b,0,0.734119229717,,,2020_Mar_04_0810,59.961162873,duckFrog,001,8,
frog,quackR.wav,20,landoltCBottom.png,V2,duckFront.png,frogFront.png,HinCong,b,-20,landoltCL.png,,,,,5,18,418,18,,,b,0,0.550422181026,,,2020_Mar_04_0810,59.961162873,duckFrog,001,8,
duck,wnR.wav,-20,landoltCL.png,V2,duckFront.png,frogFront.png,LcongWN,h,20,landoltCTop.png,,,,,5,19,419,5,,,h,0,1.18423515311,,,2020_Mar_04_0810,59.961162873,duckFrog,001,8,
frog,quackR.wav,20,landoltCTop.png,V2,duckFront.png,frogFront.png,HinCong,h,-20,landoltCR.png,,,,,5,20,420,42,,,h,0,0.683802800137,,,2020_Mar_04_0810,59.961162873,duckFrog,001,8,
frog,wnR.wav,-20,landoltCR.png,V2,frogFront.png,duckFront.png,HcongWN,b,20,landoltCBottom.png,,,,,5,21,421,69,,,b,0,0.517085365427,,,2020_Mar_04_0810,59.961162873,duckFrog,001,8,
duck,wnL.wav,-20,landoltCL.png,V2,duckFront.png,frogFront.png,LinCongWN,b,20,landoltCBottom.png,,,,,5,22,422,15,,,h,0,0.95105888907,,,2020_Mar_04_0810,59.961162873,duckFrog,001,8,
frog,wnR.wav,20,landoltCTop.png,V2,duckFront.png,frogFront.png,HinCongWN,h,-20,landoltCL.png,,,,,5,23,423,75,,,h,0,0.984107591561,,,2020_Mar_04_0810,59.961162873,duckFrog,001,8,
frog,quackR.wav,20,landoltCBottom.png,V2,duckFront.png,frogFront.png,HinCong,b,-20,landoltCL.png,,,,,5,24,424,66,,,b,0,0.750726056081,,,2020_Mar_04_0810,59.961162873,duckFrog,001,8,
frog,wnL.wav,-20,landoltCR.png,V2,frogFront.png,duckFront.png,HinCongWN,b,20,landoltCBottom.png,,,,,5,25,425,39,,,b,0,1.00073017986,,,2020_Mar_04_0810,59.961162873,duckFrog,001,8,
frog,wnL.wav,-20,landoltCR.png,V2,frogFront.png,duckFront.png,HinCongWN,b,20,landoltCBottom.png,,,,,5,26,426,55,,,b,0,0.56835594069,,,2020_Mar_04_0810,59.961162873,duckFrog,001,8,
duck,wnL.wav,20,landoltCBottom.png,V2,frogFront.png,duckFront.png,LcongWN,b,-20,landoltCL.png,,,,,5,27,427,9,,,b,0,1.10082969983,,,2020_Mar_04_0810,59.961162873,duckFrog,001,8,
frog,wnL.wav,-20,landoltCR.png,V2,frogFront.png,duckFront.png,HinCongWN,b,20,landoltCBottom.png,,,,,5,28,428,71,,,b,0,0.517028182687,,,2020_Mar_04_0810,59.961162873,duckFrog,001,8,
frog,wnR.wav,-20,landoltCR.png,V2,frogFront.png,duckFront.png,HcongWN,b,20,landoltCBottom.png,,,,,5,29,429,21,,,b,0,0.617398587667,,,2020_Mar_04_0810,59.961162873,duckFrog,001,8,
duck,ribbitL.wav,-20,landoltCR.png,V2,duckFront.png,frogFront.png,LinCong,h,20,landoltCTop.png,,,,,5,30,430,6,,,h,0,1.11772610559,,,2020_Mar_04_0810,59.961162873,duckFrog,001,8,
duck,ribbitR.wav,20,landoltCBottom.png,V2,frogFront.png,duckFront.png,LinCong,b,-20,landoltCR.png,,,,,5,31,431,10,,,b,0,0.883923763642,,,2020_Mar_04_0810,59.961162873,duckFrog,001,8,
duck,wnL.wav,20,landoltCTop.png,V2,frogFront.png,duckFront.png,LcongWN,h,-20,landoltCR.png,,,,,5,32,432,1,,,h,0,0.950973481493,,,2020_Mar_04_0810,59.961162873,duckFrog,001,8,
frog,wnR.wav,20,landoltCTop.png,V2,duckFront.png,frogFront.png,HinCongWN,h,-20,landoltCL.png,,,,,5,33,433,27,,,h,0,1.05120166269,,,2020_Mar_04_0810,59.961162873,duckFrog,001,8,
frog,ribbitR.wav,-20,landoltCL.png,V2,frogFront.png,duckFront.png,Hcong,b,20,landoltCBottom.png,,,,,5,34,434,36,,,b,0,0.783926879376,,,2020_Mar_04_0810,59.961162873,duckFrog,001,8,
frog,quackL.wav,-20,landoltCL.png,V2,frogFront.png,duckFront.png,HinCong,h,20,landoltCTop.png,,,,,5,35,435,78,,,h,0,0.817528715095,,,2020_Mar_04_0810,59.961162873,duckFrog,001,8,
frog,quackL.wav,-20,landoltCL.png,V2,frogFront.png,duckFront.png,HinCong,b,20,landoltCBottom.png,,,,,5,36,436,22,,,b,0,0.400550200779,,,2020_Mar_04_0810,59.961162873,duckFrog,001,8,
frog,ribbitL.wav,20,landoltCTop.png,V2,duckFront.png,frogFront.png,Hcong,h,-20,landoltCR.png,,,,,5,37,437,24,,,h,0,0.617094712594,,,2020_Mar_04_0810,59.961162873,duckFrog,001,8,
duck,wnR.wav,-20,landoltCL.png,V2,duckFront.png,frogFront.png,LcongWN,b,20,landoltCBottom.png,,,,,5,38,438,13,,,b,0,0.633714734984,,,2020_Mar_04_0810,59.961162873,duckFrog,001,8,
frog,wnR.wav,20,landoltCTop.png,V2,duckFront.png,frogFront.png,HinCongWN,h,-20,landoltCL.png,,,,,5,39,439,43,,,h,0,1.18417540446,,,2020_Mar_04_0810,59.961162873,duckFrog,001,8,
frog,quackR.wav,20,landoltCBottom.png,V2,duckFront.png,frogFront.png,HinCong,b,-20,landoltCL.png,,,,,5,40,440,50,,,b,0,0.517466950376,,,2020_Mar_04_0810,59.961162873,duckFrog,001,8,
frog,ribbitL.wav,20,landoltCBottom.png,V2,duckFront.png,frogFront.png,Hcong,b,-20,landoltCL.png,,,,,5,41,441,32,,,b,0,0.850900353544,,,2020_Mar_04_0810,59.961162873,duckFrog,001,8,
frog,ribbitR.wav,-20,landoltCL.png,V2,frogFront.png,duckFront.png,Hcong,h,20,landoltCTop.png,,,,,5,42,442,60,,,h,0,0.667207703547,,,2020_Mar_04_0810,59.961162873,duckFrog,001,8,
frog,wnL.wav,-20,landoltCR.png,V2,frogFront.png,duckFront.png,HinCongWN,h,20,landoltCTop.png,,,,,5,43,443,63,,,h,0,0.784164041223,,,2020_Mar_04_0810,59.961162873,duckFrog,001,8,
frog,wnL.wav,20,landoltCBottom.png,V2,duckFront.png,frogFront.png,HcongWN,b,-20,landoltCR.png,,,,,5,44,444,49,,,b,0,0.583799317828,,,2020_Mar_04_0810,59.961162873,duckFrog,001,8,
frog,ribbitL.wav,20,landoltCTop.png,V2,duckFront.png,frogFront.png,Hcong,h,-20,landoltCR.png,,,,,5,45,445,40,,,b,0,0.917588280485,,,2020_Mar_04_0810,59.961162873,duckFrog,001,8,
frog,wnL.wav,-20,landoltCR.png,V2,frogFront.png,duckFront.png,HinCongWN,b,20,landoltCBottom.png,,,,,5,46,446,23,,,b,0,1.26778356326,,,2020_Mar_04_0810,59.961162873,duckFrog,001,8,
frog,wnL.wav,20,landoltCTop.png,V2,duckFront.png,frogFront.png,HcongWN,h,-20,landoltCL.png,,,,,5,47,447,25,,,h,0,0.667089305905,,,2020_Mar_04_0810,59.961162873,duckFrog,001,8,
duck,wnL.wav,-20,landoltCL.png,V2,duckFront.png,frogFront.png,LinCongWN,h,20,landoltCTop.png,,,,,5,48,448,7,,,h,0,1.35103872849,,,2020_Mar_04_0810,59.961162873,duckFrog,001,8,
frog,quackR.wav,20,landoltCBottom.png,V2,duckFront.png,frogFront.png,HinCong,b,-20,landoltCL.png,,,,,5,49,449,34,,,b,0,1.26769045799,,,2020_Mar_04_0810,59.961162873,duckFrog,001,8,
frog,ribbitR.wav,-20,landoltCL.png,V2,frogFront.png,duckFront.png,Hcong,h,20,landoltCTop.png,,,,,5,50,450,28,,,h,0,1.1506817028,,,2020_Mar_04_0810,59.961162873,duckFrog,001,8,
frog,wnL.wav,20,landoltCTop.png,V2,duckFront.png,frogFront.png,HcongWN,h,-20,landoltCL.png,,,,,5,51,451,57,,,h,0,0.800554599467,,,2020_Mar_04_0810,59.961162873,duckFrog,001,8,
frog,wnR.wav,-20,landoltCR.png,V2,frogFront.png,duckFront.png,HcongWN,b,20,landoltCBottom.png,,,,,5,52,452,37,,,b,0,0.767229513614,,,2020_Mar_04_0810,59.961162873,duckFrog,001,8,
duck,ribbitL.wav,-20,landoltCR.png,V2,duckFront.png,frogFront.png,LinCong,b,20,landoltCBottom.png,,,,,5,53,453,14,,,b,0,1.33460125106,,,2020_Mar_04_0810,59.961162873,duckFrog,001,8,
frog,wnR.wav,-20,landoltCR.png,V2,frogFront.png,duckFront.png,HcongWN,b,20,landoltCBottom.png,,,,,5,54,454,53,,,b,0,0.767471807252,,,2020_Mar_04_0810,59.961162873,duckFrog,001,8,
frog,ribbitL.wav,20,landoltCBottom.png,V2,duckFront.png,frogFront.png,Hcong,b,-20,landoltCL.png,,,,,5,55,455,64,,,b,0,0.733827817574,,,2020_Mar_04_0810,59.961162873,duckFrog,001,8,
frog,ribbitR.wav,-20,landoltCL.png,V2,frogFront.png,duckFront.png,Hcong,b,20,landoltCBottom.png,,,,,5,56,456,52,,,b,0,0.700474506913,,,2020_Mar_04_0810,59.961162873,duckFrog,001,8,
duck,quackR.wav,-20,landoltCR.png,V2,duckFront.png,frogFront.png,Lcong,h,20,landoltCTop.png,,,,,5,57,457,4,,,h,0,0.93427611576,,,2020_Mar_04_0810,59.961162873,duckFrog,001,8,
frog,quackR.wav,20,landoltCTop.png,V2,duckFront.png,frogFront.png,HinCong,h,-20,landoltCR.png,,,,,5,58,458,74,,,h,0,1.41777870638,,,2020_Mar_04_0810,59.961162873,duckFrog,001,8,
frog,wnR.wav,20,landoltCBottom.png,V2,duckFront.png,frogFront.png,HinCongWN,b,-20,landoltCR.png,,,,,5,59,459,67,,,b,0,1.0843222102,,,2020_Mar_04_0810,59.961162873,duckFrog,001,8,
frog,ribbitR.wav,-20,landoltCL.png,V2,frogFront.png,duckFront.png,Hcong,h,20,landoltCTop.png,,,,,5,60,460,44,,,h,0,0.783897921443,,,2020_Mar_04_0810,59.961162873,duckFrog,001,8,
frog,wnR.wav,20,landoltCBottom.png,V2,duckFront.png,frogFront.png,HinCongWN,b,-20,landoltCR.png,,,,,5,61,461,51,,,b,0,0.917317395477,,,2020_Mar_04_0810,59.961162873,duckFrog,001,8,
frog,ribbitL.wav,20,landoltCBottom.png,V2,duckFront.png,frogFront.png,Hcong,b,-20,landoltCL.png,,,,,5,62,462,48,,,b,0,0.81753677933,,,2020_Mar_04_0810,59.961162873,duckFrog,001,8,
frog,wnL.wav,20,landoltCTop.png,V2,duckFront.png,frogFront.png,HcongWN,h,-20,landoltCL.png,,,,,5,63,463,73,,,h,0,0.600731279526,,,2020_Mar_04_0810,59.961162873,duckFrog,001,8,
frog,ribbitL.wav,20,landoltCBottom.png,V2,duckFront.png,frogFront.png,Hcong,b,-20,landoltCL.png,,,,,5,64,464,16,,,b,0,0.533958311571,,,2020_Mar_04_0810,59.961162873,duckFrog,001,8,
frog,wnL.wav,20,landoltCBottom.png,V2,duckFront.png,frogFront.png,HcongWN,b,-20,landoltCR.png,,,,,5,65,465,65,,,b,0,0.634281797393,,,2020_Mar_04_0810,59.961162873,duckFrog,001,8,
frog,ribbitR.wav,-20,landoltCL.png,V2,frogFront.png,duckFront.png,Hcong,h,20,landoltCTop.png,,,,,5,66,466,76,,,h,0,0.667108733382,,,2020_Mar_04_0810,59.961162873,duckFrog,001,8,
frog,quackL.wav,-20,landoltCL.png,V2,frogFront.png,duckFront.png,HinCong,b,20,landoltCBottom.png,,,,,5,67,467,38,,,b,0,0.41722887216,,,2020_Mar_04_0810,59.961162873,duckFrog,001,8,
frog,quackL.wav,-20,landoltCL.png,V2,frogFront.png,duckFront.png,HinCong,h,20,landoltCTop.png,,,,,5,68,468,30,,,h,0,0.834198222583,,,2020_Mar_04_0810,59.961162873,duckFrog,001,8,
frog,ribbitL.wav,20,landoltCTop.png,V2,duckFront.png,frogFront.png,Hcong,h,-20,landoltCR.png,,,,,5,69,469,56,,,h,0,0.767253339785,,,2020_Mar_04_0810,59.961162873,duckFrog,001,8,
frog,quackR.wav,20,landoltCTop.png,V2,duckFront.png,frogFront.png,HinCong,h,-20,landoltCR.png,,,,,5,70,470,26,,,h,0,0.567329583457,,,2020_Mar_04_0810,59.961162873,duckFrog,001,8,
frog,ribbitR.wav,-20,landoltCL.png,V2,frogFront.png,duckFront.png,Hcong,b,20,landoltCBottom.png,,,,,5,71,471,20,,,b,0,1.4511331167,,,2020_Mar_04_0810,59.961162873,duckFrog,001,8,
frog,wnL.wav,-20,landoltCR.png,V2,frogFront.png,duckFront.png,HinCongWN,h,20,landoltCTop.png,,,,,5,72,472,47,,,h,0,0.584014119755,,,2020_Mar_04_0810,59.961162873,duckFrog,001,8,
frog,wnR.wav,-20,landoltCR.png,V2,frogFront.png,duckFront.png,HcongWN,h,20,landoltCTop.png,,,,,5,73,473,45,,,h,0,0.650746033381,,,2020_Mar_04_0810,59.961162873,duckFrog,001,8,
duck,wnR.wav,20,landoltCBottom.png,V2,frogFront.png,duckFront.png,LinCongWN,b,-20,landoltCL.png,,,,,5,74,474,11,,,b,0,1.23430122487,,,2020_Mar_04_0810,59.961162873,duckFrog,001,8,
frog,quackL.wav,-20,landoltCL.png,V2,frogFront.png,duckFront.png,HinCong,b,20,landoltCBottom.png,,,,,5,75,475,70,,,b,0,1.03414103983,,,2020_Mar_04_0810,59.961162873,duckFrog,001,8,
duck,ribbitR.wav,20,landoltCTop.png,V2,frogFront.png,duckFront.png,LinCong,h,-20,landoltCL.png,,,,,5,76,476,2,,,h,0,0.667178745614,,,2020_Mar_04_0810,59.961162873,duckFrog,001,8,
frog,wnL.wav,20,landoltCBottom.png,V2,duckFront.png,frogFront.png,HcongWN,b,-20,landoltCR.png,,,,,5,77,477,17,,,b,0,0.500662183709,,,2020_Mar_04_0810,59.961162873,duckFrog,001,8,
frog,wnR.wav,-20,landoltCR.png,V2,frogFront.png,duckFront.png,HcongWN,h,20,landoltCTop.png,,,,,5,78,478,29,,,h,0,0.533806190768,,,2020_Mar_04_0810,59.961162873,duckFrog,001,8,
frog,quackL.wav,-20,landoltCL.png,V2,frogFront.png,duckFront.png,HinCong,h,20,landoltCTop.png,,,,,5,79,479,46,,,h,0,0.534037854261,,,2020_Mar_04_0810,59.961162873,duckFrog,001,8,
frog,wnR.wav,-20,landoltCR.png,V2,frogFront.png,duckFront.png,HcongWN,b,20,landoltCBottom.png,,,,,6,0,480,37,,,b,0,1.13454590109,,,2020_Mar_04_0810,59.961162873,duckFrog,001,8,
frog,quackL.wav,-20,landoltCL.png,V2,frogFront.png,duckFront.png,HinCong,b,20,landoltCBottom.png,,,,,6,1,481,54,,,b,0,0.600752539758,,,2020_Mar_04_0810,59.961162873,duckFrog,001,8,
frog,ribbitL.wav,20,landoltCTop.png,V2,duckFront.png,frogFront.png,Hcong,h,-20,landoltCR.png,,,,,6,2,482,72,,,h,0,1.20101829298,,,2020_Mar_04_0810,59.961162873,duckFrog,001,8,
frog,quackR.wav,20,landoltCTop.png,V2,duckFront.png,frogFront.png,HinCong,h,-20,landoltCR.png,,,,,6,3,483,58,,,h,0,1.50141985525,,,2020_Mar_04_0810,59.961162873,duckFrog,001,8,
frog,quackR.wav,20,landoltCTop.png,V2,duckFront.png,frogFront.png,HinCong,h,-20,landoltCR.png,,,,,6,4,484,42,,,h,0,0.817578933289,,,2020_Mar_04_0810,59.961162873,duckFrog,001,8,
frog,wnL.wav,20,landoltCTop.png,V2,duckFront.png,frogFront.png,HcongWN,h,-20,landoltCL.png,,,,,6,5,485,57,,,h,0,0.500625894638,,,2020_Mar_04_0810,59.961162873,duckFrog,001,8,
frog,wnL.wav,-20,landoltCR.png,V2,frogFront.png,duckFront.png,HinCongWN,b,20,landoltCBottom.png,,,,,6,6,486,71,,,b,0,1.28449375846,,,2020_Mar_04_0810,59.961162873,duckFrog,001,8,
frog,wnR.wav,-20,landoltCR.png,V2,frogFront.png,duckFront.png,HcongWN,h,20,landoltCTop.png,,,,,6,7,487,45,,,h,0,0.517337556055,,,2020_Mar_04_0810,59.961162873,duckFrog,001,8,
frog,wnL.wav,20,landoltCTop.png,V2,duckFront.png,frogFront.png,HcongWN,h,-20,landoltCL.png,,,,,6,8,488,73,,,h,0,0.750684268714,,,2020_Mar_04_0810,59.961162873,duckFrog,001,8,
duck,wnR.wav,-20,landoltCL.png,V2,duckFront.png,frogFront.png,LcongWN,h,20,landoltCTop.png,,,,,6,9,489,5,,,h,0,1.23442548738,,,2020_Mar_04_0810,59.961162873,duckFrog,001,8,
duck,wnL.wav,-20,landoltCL.png,V2,duckFront.png,frogFront.png,LinCongWN,h,20,landoltCTop.png,,,,,6,10,490,7,,,h,0,0.984322760021,,,2020_Mar_04_0810,59.961162873,duckFrog,001,8,
frog,wnL.wav,20,landoltCTop.png,V2,duckFront.png,frogFront.png,HcongWN,h,-20,landoltCL.png,,,,,6,11,491,41,,,h,0,0.600449031277,,,2020_Mar_04_0810,59.961162873,duckFrog,001,8,
frog,ribbitL.wav,20,landoltCBottom.png,V2,duckFront.png,frogFront.png,Hcong,b,-20,landoltCL.png,,,,,6,12,492,16,,,b,0,0.751056323177,,,2020_Mar_04_0810,59.961162873,duckFrog,001,8,
frog,ribbitR.wav,-20,landoltCL.png,V2,frogFront.png,duckFront.png,Hcong,h,20,landoltCTop.png,,,,,6,13,493,76,,,h,0,0.78393237773,,,2020_Mar_04_0810,59.961162873,duckFrog,001,8,
frog,wnR.wav,-20,landoltCR.png,V2,frogFront.png,duckFront.png,HcongWN,b,20,landoltCBottom.png,,,,,6,14,494,21,,,b,0,0.700742459478,,,2020_Mar_04_0810,59.961162873,duckFrog,001,8,
frog,wnR.wav,-20,landoltCR.png,V2,frogFront.png,duckFront.png,HcongWN,h,20,landoltCTop.png,,,,,6,15,495,29,,,h,0,0.800836481125,,,2020_Mar_04_0810,59.961162873,duckFrog,001,8,
frog,quackR.wav,20,landoltCBottom.png,V2,duckFront.png,frogFront.png,HinCong,b,-20,landoltCL.png,,,,,6,16,496,34,,,b,0,1.10087332001,,,2020_Mar_04_0810,59.961162873,duckFrog,001,8,
duck,quackR.wav,-20,landoltCR.png,V2,duckFront.png,frogFront.png,Lcong,h,20,landoltCTop.png,,,,,6,17,497,4,,,h,0,0.750642847852,,,2020_Mar_04_0810,59.961162873,duckFrog,001,8,
frog,wnL.wav,-20,landoltCR.png,V2,frogFront.png,duckFront.png,HinCongWN,h,20,landoltCTop.png,,,,,6,18,498,47,,,h,0,0.817512953188,,,2020_Mar_04_0810,59.961162873,duckFrog,001,8,
duck,wnL.wav,20,landoltCBottom.png,V2,frogFront.png,duckFront.png,LcongWN,b,-20,landoltCL.png,,,,,6,19,499,9,,,b,0,0.750620121369,,,2020_Mar_04_0810,59.961162873,duckFrog,001,8,
frog,wnL.wav,20,landoltCTop.png,V2,duckFront.png,frogFront.png,HcongWN,h,-20,landoltCL.png,,,,,6,20,500,25,,,h,0,0.700794510456,,,2020_Mar_04_0810,59.961162873,duckFrog,001,8,
duck,ribbitL.wav,-20,landoltCR.png,V2,duckFront.png,frogFront.png,LinCong,b,20,landoltCBottom.png,,,,,6,21,501,14,,,b,0,1.01754117801,,,2020_Mar_04_0810,59.961162873,duckFrog,001,8,
frog,ribbitL.wav,20,landoltCBottom.png,V2,duckFront.png,frogFront.png,Hcong,b,-20,landoltCL.png,,,,,6,22,502,64,,,b,0,0.984193732264,,,2020_Mar_04_0810,59.961162873,duckFrog,001,8,
frog,quackR.wav,20,landoltCBottom.png,V2,duckFront.png,frogFront.png,HinCong,b,-20,landoltCL.png,,,,,6,23,503,50,,,b,0,0.467279548524,,,2020_Mar_04_0810,59.961162873,duckFrog,001,8,
frog,wnL.wav,20,landoltCBottom.png,V2,duckFront.png,frogFront.png,HcongWN,b,-20,landoltCR.png,,,,,6,24,504,65,,,b,0,0.467320602853,,,2020_Mar_04_0810,59.961162873,duckFrog,001,8,
frog,wnR.wav,20,landoltCBottom.png,V2,duckFront.png,frogFront.png,HinCongWN,b,-20,landoltCR.png,,,,,6,25,505,19,,,b,0,0.767565279064,,,2020_Mar_04_0810,59.961162873,duckFrog,001,8,
frog,wnL.wav,-20,landoltCR.png,V2,frogFront.png,duckFront.png,HinCongWN,h,20,landoltCTop.png,,,,,6,26,506,31,,,h,0,0.750654577656,,,2020_Mar_04_0810,59.961162873,duckFrog,001,8,
duck,wnL.wav,-20,landoltCL.png,V2,duckFront.png,frogFront.png,LinCongWN,b,20,landoltCBottom.png,,,,,6,27,507,15,,,b,0,0.617463834671,,,2020_Mar_04_0810,59.961162873,duckFrog,001,8,
frog,wnL.wav,-20,landoltCR.png,V2,frogFront.png,duckFront.png,HinCongWN,b,20,landoltCBottom.png,,,,,6,28,508,39,,,b,0,0.650788187369,,,2020_Mar_04_0810,59.961162873,duckFrog,001,8,
frog,ribbitR.wav,-20,landoltCL.png,V2,frogFront.png,duckFront.png,Hcong,h,20,landoltCTop.png,,,,,6,29,509,44,,,h,0,0.717519367929,,,2020_Mar_04_0810,59.961162873,duckFrog,001,8,
frog,wnR.wav,20,landoltCTop.png,V2,duckFront.png,frogFront.png,HinCongWN,h,-20,landoltCL.png,,,,,6,30,510,75,,,h,0,0.567177829245,,,2020_Mar_04_0810,59.961162873,duckFrog,001,8,
frog,wnL.wav,20,landoltCBottom.png,V2,duckFront.png,frogFront.png,HcongWN,b,-20,landoltCR.png,,,,,6,31,511,49,,,b,0,1.15116482382,,,2020_Mar_04_0810,59.961162873,duckFrog,001,8,
duck,wnR.wav,20,landoltCTop.png,V2,frogFront.png,duckFront.png,LinCongWN,h,-20,landoltCR.png,,,,,6,32,512,3,,,h,0,1.13451840938,,,2020_Mar_04_0810,59.961162873,duckFrog,001,8,
frog,wnL.wav,-20,landoltCR.png,V2,frogFront.png,duckFront.png,HinCongWN,h,20,landoltCTop.png,,,,,6,33,513,79,,,h,0,1.21772335639,,,2020_Mar_04_0810,59.961162873,duckFrog,001,8,
frog,wnR.wav,-20,landoltCR.png,V2,frogFront.png,duckFront.png,HcongWN,h,20,landoltCTop.png,,,,,6,34,514,77,,,h,0,1.0510345131,,,2020_Mar_04_0810,59.961162873,duckFrog,001,8,
frog,ribbitR.wav,-20,landoltCL.png,V2,frogFront.png,duckFront.png,Hcong,h,20,landoltCTop.png,,,,,6,35,515,60,,,h,0,0.734096136672,,,2020_Mar_04_0810,59.961162873,duckFrog,001,8,
frog,wnR.wav,20,landoltCBottom.png,V2,duckFront.png,frogFront.png,HinCongWN,b,-20,landoltCR.png,,,,,6,36,516,35,,,b,0,0.683870612993,,,2020_Mar_04_0810,59.961162873,duckFrog,001,8,
frog,wnL.wav,20,landoltCBottom.png,V2,duckFront.png,frogFront.png,HcongWN,b,-20,landoltCR.png,,,,,6,37,517,33,,,b,0,0.634004314372,,,2020_Mar_04_0810,59.961162873,duckFrog,001,8,
frog,quackL.wav,-20,landoltCL.png,V2,frogFront.png,duckFront.png,HinCong,h,20,landoltCTop.png,,,,,6,38,518,62,,,h,0,1.15090860106,,,2020_Mar_04_0810,59.961162873,duckFrog,001,8,
frog,ribbitR.wav,-20,landoltCL.png,V2,frogFront.png,duckFront.png,Hcong,h,20,landoltCTop.png,,,,,6,39,519,28,,,h,0,0.867466858734,,,2020_Mar_04_0810,59.961162873,duckFrog,001,8,
frog,wnR.wav,20,landoltCBottom.png,V2,duckFront.png,frogFront.png,HinCongWN,b,-20,landoltCR.png,,,,,6,40,520,67,,,b,0,0.600323302526,,,2020_Mar_04_0810,59.961162873,duckFrog,001,8,
frog,wnL.wav,-20,landoltCR.png,V2,frogFront.png,duckFront.png,HinCongWN,b,20,landoltCBottom.png,,,,,6,41,521,23,,,b,0,0.984120421024,,,2020_Mar_04_0810,59.961162873,duckFrog,001,8,
duck,ribbitR.wav,20,landoltCTop.png,V2,frogFront.png,duckFront.png,LinCong,h,-20,landoltCL.png,,,,,6,42,522,2,,,h,0,0.734078175446,,,2020_Mar_04_0810,59.961162873,duckFrog,001,8,
frog,ribbitL.wav,20,landoltCTop.png,V2,duckFront.png,frogFront.png,Hcong,h,-20,landoltCR.png,,,,,6,43,523,56,,,h,0,0.717623103294,,,2020_Mar_04_0810,59.961162873,duckFrog,001,8,
frog,quackL.wav,-20,landoltCL.png,V2,frogFront.png,duckFront.png,HinCong,h,20,landoltCTop.png,,,,,6,44,524,78,,,h,0,1.38437297821,,,2020_Mar_04_0810,59.961162873,duckFrog,001,8,
frog,wnR.wav,20,landoltCTop.png,V2,duckFront.png,frogFront.png,HinCongWN,h,-20,landoltCL.png,,,,,6,45,525,43,,,h,0,0.550430245261,,,2020_Mar_04_0810,59.961162873,duckFrog,001,8,
duck,wnL.wav,20,landoltCTop.png,V2,frogFront.png,duckFront.png,LcongWN,h,-20,landoltCR.png,,,,,6,46,526,1,,,h,0,0.53401292843,,,2020_Mar_04_0810,59.961162873,duckFrog,001,8,
frog,wnL.wav,20,landoltCBottom.png,V2,duckFront.png,frogFront.png,HcongWN,b,-20,landoltCR.png,,,,,6,47,527,17,,,b,0,0.533939617191,,,2020_Mar_04_0810,59.961162873,duckFrog,001,8,
frog,quackL.wav,-20,landoltCL.png,V2,frogFront.png,duckFront.png,HinCong,h,20,landoltCTop.png,,,,,6,48,528,30,,,h,0,1.01743047804,,,2020_Mar_04_0810,59.961162873,duckFrog,001,8,
frog,quackL.wav,-20,landoltCL.png,V2,frogFront.png,duckFront.png,HinCong,b,20,landoltCBottom.png,,,,,6,49,529,70,,,b,0,1.00093141917,,,2020_Mar_04_0810,59.961162873,duckFrog,001,8,
frog,wnL.wav,-20,landoltCR.png,V2,frogFront.png,duckFront.png,HinCongWN,b,20,landoltCBottom.png,,,,,6,50,530,55,,,b,0,0.567317487119,,,2020_Mar_04_0810,59.961162873,duckFrog,001,8,
duck,quackL.wav,20,landoltCBottom.png,V2,frogFront.png,duckFront.png,Lcong,b,-20,landoltCR.png,,,,,6,51,531,8,,,b,0,0.917388873902,,,2020_Mar_04_0810,59.961162873,duckFrog,001,8,
frog,ribbitR.wav,-20,landoltCL.png,V2,frogFront.png,duckFront.png,Hcong,b,20,landoltCBottom.png,,,,,6,52,532,36,,,b,0,0.967382000992,,,2020_Mar_04_0810,59.961162873,duckFrog,001,8,
frog,ribbitL.wav,20,landoltCBottom.png,V2,duckFront.png,frogFront.png,Hcong,b,-20,landoltCL.png,,,,,6,53,533,48,,,b,0,0.700449581112,,,2020_Mar_04_0810,59.961162873,duckFrog,001,8,
duck,ribbitL.wav,-20,landoltCR.png,V2,duckFront.png,frogFront.png,LinCong,h,20,landoltCTop.png,,,,,6,54,534,6,,,h,0,1.28429288571,,,2020_Mar_04_0810,59.961162873,duckFrog,001,8,
frog,wnR.wav,-20,landoltCR.png,V2,frogFront.png,duckFront.png,HcongWN,b,20,landoltCBottom.png,,,,,6,55,535,69,,,b,0,1.05106603692,,,2020_Mar_04_0810,59.961162873,duckFrog,001,8,
frog,ribbitR.wav,-20,landoltCL.png,V2,frogFront.png,duckFront.png,Hcong,b,20,landoltCBottom.png,,,,,6,56,536,68,,,b,0,0.784195198474,,,2020_Mar_04_0810,59.961162873,duckFrog,001,8,
frog,ribbitR.wav,-20,landoltCL.png,V2,frogFront.png,duckFront.png,Hcong,b,20,landoltCBottom.png,,,,,6,57,537,52,,,h,0,0.517257646832,,,2020_Mar_04_0810,59.961162873,duckFrog,001,8,
frog,quackR.wav,20,landoltCTop.png,V2,duckFront.png,frogFront.png,HinCong,h,-20,landoltCR.png,,,,,6,58,538,26,,,b,0,0.700437484746,,,2020_Mar_04_0810,59.961162873,duckFrog,001,8,
frog,ribbitL.wav,20,landoltCTop.png,V2,duckFront.png,frogFront.png,Hcong,h,-20,landoltCR.png,,,,,6,59,539,24,,,h,0,0.48391899842,,,2020_Mar_04_0810,59.961162873,duckFrog,001,8,
frog,quackL.wav,-20,landoltCL.png,V2,frogFront.png,duckFront.png,HinCong,b,20,landoltCBottom.png,,,,,6,60,540,22,,,b,0,1.20091199171,,,2020_Mar_04_0810,59.961162873,duckFrog,001,8,
frog,wnR.wav,20,landoltCBottom.png,V2,duckFront.png,frogFront.png,HinCongWN,b,-20,landoltCR.png,,,,,6,61,541,51,,,b,0,1.30098365343,,,2020_Mar_04_0810,59.961162873,duckFrog,001,8,
frog,quackL.wav,-20,landoltCL.png,V2,frogFront.png,duckFront.png,HinCong,h,20,landoltCTop.png,,,,,6,62,542,46,,,h,0,1.1508671802,,,2020_Mar_04_0810,59.961162873,duckFrog,001,8,
duck,ribbitR.wav,20,landoltCBottom.png,V2,frogFront.png,duckFront.png,LinCong,b,-20,landoltCR.png,,,,,6,63,543,10,,,b,0,1.26760578353,,,2020_Mar_04_0810,59.961162873,duckFrog,001,8,
frog,wnL.wav,-20,landoltCR.png,V2,frogFront.png,duckFront.png,HinCongWN,h,20,landoltCTop.png,,,,,6,64,544,63,,,h,0,0.633826901205,,,2020_Mar_04_0810,59.961162873,duckFrog,001,8,
frog,quackR.wav,20,landoltCBottom.png,V2,duckFront.png,frogFront.png,HinCong,b,-20,landoltCL.png,,,,,6,65,545,18,,,b,0,0.750575768092,,,2020_Mar_04_0810,59.961162873,duckFrog,001,8,
duck,wnR.wav,-20,landoltCL.png,V2,duckFront.png,frogFront.png,LcongWN,b,20,landoltCBottom.png,,,,,6,66,546,13,,,b,0,1.18418053622,,,2020_Mar_04_0810,59.961162873,duckFrog,001,8,
frog,ribbitR.wav,-20,landoltCL.png,V2,frogFront.png,duckFront.png,Hcong,b,20,landoltCBottom.png,,,,,6,67,547,20,,,b,0,1.0678843662,,,2020_Mar_04_0810,59.961162873,duckFrog,001,8,
duck,wnR.wav,20,landoltCBottom.png,V2,frogFront.png,duckFront.png,LinCongWN,b,-20,landoltCL.png,,,,,6,68,548,11,,,b,0,1.58473073703,,,2020_Mar_04_0810,59.961162873,duckFrog,001,8,
frog,quackR.wav,20,landoltCBottom.png,V2,duckFront.png,frogFront.png,HinCong,b,-20,landoltCL.png,,,,,6,69,549,66,,,b,0,1.25141206593,,,2020_Mar_04_0810,59.961162873,duckFrog,001,8,
frog,wnR.wav,20,landoltCTop.png,V2,duckFront.png,frogFront.png,HinCongWN,h,-20,landoltCL.png,,,,,6,70,550,27,,,h,0,1.2845051217,,,2020_Mar_04_0810,59.961162873,duckFrog,001,8,
frog,quackR.wav,20,landoltCTop.png,V2,duckFront.png,frogFront.png,HinCong,h,-20,landoltCR.png,,,,,6,71,551,74,,,h,0,1.40133169849,,,2020_Mar_04_0810,59.961162873,duckFrog,001,8,
